timestamp,accl_x,accl_y,accl_z,gyro_x,gyro_y,gyro_z,magn_x,magn_y,magn_z,jab_x,jab_y,jab_z,shake_x,shake_y,shake_z
0,5.516652,1.3860425,9.018548,-1.1530081,1.5914568,1.0125091,0.2429795,-0.5259892,-0.81504375,9.524033,5.7242293,7.4859457,2.259476,0.5542506,4.552386
99,3.8303106,1.3519448,9.995418,-0.8936959,0.15302174,2.0137174,0.21364523,-0.6197246,-0.75518024,9.524033,5.7242293,7.4859457,3.2121782,0.9683884,6.400961
206,4.2335014,6.355337,8.455637,-5.004208,1.5332717,5.003444,0.10368362,-0.77284575,-0.6260664,9.524033,7.04447,7.4859457,2.7680252,1.4958092,5.4824715
312,-0.5012963,4.3483567,4.6749773,5.003444,-1.4976888,-1.4317154,-0.2196402,-0.8325701,-0.50851274,6.1980085,7.789236,5.3204403,0.8805372,2.0876157,4.3904805
419,4.433302,9.306285,5.392824,-2.5370762,0.6597344,-1.8675678,0.014789611,-0.7969749,-0.6038313,7.912466,8.516055,7.829914,1.7173159,2.8306477,4.6362195
525,4.5361934,12.636496,3.8817563,-1.9900461,-1.9967657,-0.527024,0.100853644,-0.90318817,-0.41722858,7.912466,12.047263,8.196016,1.7935085,2.9973922,3.6338515
632,-3.1896324,10.120443,-0.02213361,-2.067168,-0.52122074,5.003444,-0.44718426,-0.8926151,-0.05713614,9.962517,12.047263,13.700704,1.6177803,4.337579,2.6426642
739,-8.261818,5.849255,7.180262,0.59880066,-1.9173533,3.5726452,-0.9468744,-0.32083473,0.022225138,15.034702,12.047263,13.700704,1.79685,3.1874728,2.3036246
845,-2.6428726,3.4097722,3.8069806,1.0845913,1.9833268,-0.20525073,-0.9298265,-0.12867707,-0.3447679,15.034702,12.047263,13.700704,1.7024333,2.391395,2.0740952
952,-6.8662043,3.2997024,7.558328,0.7680103,1.1389582,-0.82527894,-0.9011926,-0.17121522,-0.39816737,13.420145,12.047263,9.355338,3.0137599,3.007906,3.5401776
1059,-3.5772696,2.5477579,7.3351974,0.10919216,1.3243558,-1.1473576,-0.84036666,-0.22029364,-0.49523184,-8.09133,7.821539,10.117452,3.4671998,2.702351,4.535952
1165,-1.1724831,2.9563322,8.694321,-0.5206099,2.2134702,-1.6869044,-0.5859787,-0.3152098,-0.74650633,-5.6937213,7.821539,6.5916276,3.12042,2.412059,5.4355702
1272,-0.5270192,3.0735807,8.079964,-0.539394,0.79015416,-0.8770498,-0.52130306,-0.36358845,-0.7720405,-6.339185,7.821539,6.5916276,1.9249539,1.7545935,4.069339
1379,-1.7670994,5.902495,11.140384,-0.93951076,-2.0992384,1.9283489,-0.4947538,-0.47877476,-0.72525406,-6.339185,7.821539,5.5322056,1.4198698,1.9628781,4.327686
1485,-2.842673,4.8107696,5.5998025,-0.23716843,-3.0347786,5.003444,-0.7122473,-0.36422935,-0.600034,-6.0586267,7.821539,7.2676005,1.8928709,2.92898,5.582781
1592,-2.035694,6.961319,5.1110687,-0.8570439,0.47708577,0.3405574,-0.87570095,-0.1648238,-0.45385122,-6.0586267,7.821539,7.7563343,1.3392919,2.45352,3.8607755
1699,-5.0416775,3.5120652,4.9256253,-0.8518516,0.54183745,2.3344216,-0.8422093,-0.0743577,-0.53399855,-6.0586267,7.821539,8.725428,1.4108975,2.1993625,3.0575464
1806,-9.989436,0.39900315,6.751349,-0.4034765,0.5966626,1.4559973,-0.8297801,0.01903789,-0.55776566,-9.462417,6.562316,8.725428,2.409841,2.2392628,3.7326813
1912,-8.815756,-1.1036894,5.8803616,-0.4906775,0.9437868,0.39584067,-0.7884741,0.028275007,-0.61441773,-9.462417,8.065008,8.725428,2.3274803,1.4539267,2.8276448
2019,-7.1718874,1.5218352,8.312067,-0.42058071,0.724028,-1.421178,-0.7206448,-0.046746124,-0.69172674,-8.270193,8.065008,6.998408,2.4816093,1.0245395,2.9925995
2125,-6.1890354,3.4630125,7.959126,0.5146539,-1.8115209,-1.7728837,-0.7170822,-0.10877821,-0.68844783,-8.270193,8.065008,6.998408,3.1005127,1.3708408,3.788512
2232,-6.048457,3.8177483,7.499704,0.6207918,-1.5716035,-2.4549146,-0.7806445,-0.22479856,-0.58314645,-8.270193,8.065008,6.998408,2.4651535,1.2042793,3.0230777
2339,-4.856233,3.8344982,7.9369926,0.5027421,0.51236326,-3.0396655,-0.7406772,-0.34440646,-0.57687217,-8.270193,8.065008,6.998408,2.9507768,1.5877291,3.816777
2445,0.37686953,5.3330035,8.182856,0.25778514,-0.56535584,-1.6452128,-0.5283006,-0.56900615,-0.63018286,10.847263,6.436693,6.998408,1.8939357,1.9338741,3.8752513
2552,0.37447673,5.350351,7.7042904,0.41615194,-0.9604329,-0.8304713,-0.5119083,-0.5818392,-0.6319913,10.847263,6.4540405,6.998408,1.173809,1.6953596,3.0955799
2659,0.08315059,6.001797,8.514261,0.64996064,-0.75075334,-0.18692477,-0.5510105,-0.57738954,-0.6025021,8.218149,6.1076794,6.998408,0.3835306,1.9781493,3.1420305
2765,-4.982455,6.5030937,8.48435,0.1928807,-3.2238412,1.3518448,-0.7482342,-0.4451162,-0.49195233,7.094719,5.187041,6.998408,0.90583944,2.8850758,4.125522
2872,-5.64407,5.870192,5.657829,-0.5652031,-1.580003,0.8680395,-0.88423425,-0.3698499,-0.28520325,7.054041,5.187041,6.998408,1.4683775,2.6988106,3.5077326
2979,-7.2963142,3.9098723,3.7657046,-0.6954701,-2.4365888,1.2012665,-0.9452823,-0.30556315,-0.11433555,8.342576,5.187041,5.1571307,2.870751,3.5630982,4.331701
3085,-8.129615,2.00698,2.8438697,-0.8177959,0.15103644,1.1215487,-0.98841023,-0.146206,0.04085306,8.843274,5.187041,6.390033,4.068254,2.835546,3.407316
3192,-9.892527,0.40977085,2.0733807,-0.929126,-2.1623101,1.6809484,-0.99569964,0.017142288,0.09104067,-6.783054,5.9359946,5.703891,4.9330773,2.0288453,2.7978296
3299,-10.734202,-1.4901303,1.1706884,-1.5274686,-3.0527992,3.0848694,-0.9276988,0.22692567,0.29644516,-6.783054,6.2231336,5.236692,4.8831973,1.4232095,1.8378803
3405,-11.973684,-1.8197416,1.0420742,-1.4524848,4.1395283,-1.223105,-0.9193782,0.32768056,0.21764456,-7.3926253,5.3001018,5.236692,6.037034,1.361228,1.3379426
3512,-9.516255,-1.012164,5.2456656,-1.6148223,2.9260445,-0.9662361,-0.89094454,0.19156927,-0.4117269,-6.4223356,5.3001018,5.31745,5.9685144,1.1305436,1.7231768
3619,-6.407979,0.71665037,7.470392,-0.6418666,2.0705278,-0.6948592,-0.8273726,0.08230823,-0.55558974,-7.6504517,5.3001018,7.5421767,4.661444,0.7499912,2.1846623
3725,-3.5210383,3.2249265,8.0345,-0.7825183,1.98745,-0.2782491,-0.6690719,-0.031585567,-0.7425262,-8.452646,5.362315,6.992426,3.7345898,1.0366191,3.0300405
3832,-1.5774683,4.019344,8.095517,-0.4708244,3.7693439,-1.1238394,-0.5135459,-0.13546428,-0.84730166,-8.940184,6.1567326,8.455636,4.2670527,1.802083,4.9179773
3939,1.4679966,3.9858441,7.8388867,-0.25717425,0.0030543262,0.5119051,-0.25000906,-0.2762599,-0.9279957,10.984252,6.20758,5.538187,2.746513,1.9993758,4.7733397
4045,-0.8889336,3.395415,7.319046,1.541824,-1.365742,-3.5795176,-0.3270481,-0.23126674,-0.91627246,8.793623,5.132006,5.538187,1.736801,1.539167,3.5959084
4152,0.76450676,4.6498523,9.630512,-0.22907446,-0.32895094,-1.6927075,-0.2856058,-0.2372024,-0.9285281,6.1680984,5.132006,5.538187,1.3208923,1.8982284,4.215528
4259,2.3964117,2.5034907,9.203394,1.138042,0.40805796,-0.41050145,-0.27043417,-0.2479653,-0.93025726,6.351149,5.132006,5.538187,1.8209324,2.397132,5.9094667
4365,1.8945173,2.777469,9.4636135,0.7683158,0.5019785,-1.1959214,-0.25565213,-0.1904585,-0.9478225,6.351149,5.132006,5.538187,1.5180032,2.2198348,6.7013345
4472,-11.304891,8.562716,19.59961,0.02855795,-0.8258898,0.30176744,-0.2763261,-0.03423083,-0.9604541,15.818951,6.332605,11.863614,2.5969045,3.2423306,8.404391
4579,-0.9200403,-10.153942,-8.2253275,2.6403122,0.4896085,-5.004208,-0.3756103,-0.29554367,-0.878391,23.942583,24.704697,27.824936,5.4067583,4.906038,6.386265
4685,19.59961,-19.59961,19.59961,-0.4372268,-3.2513304,-1.0151054,-0.2545068,0.09068482,-0.96280974,39.028133,34.150364,27.824936,6.808164,6.8635445,6.3189783
4792,-6.134001,-4.6905303,7.5499535,-1.2498302,-0.81046546,2.4317017,-0.36665738,-0.17265512,-0.91419506,39.028133,34.150364,27.824936,5.313613,6.0499,5.5064306
4899,-8.315059,3.6179476,6.004788,-1.4471397,-1.6788104,1.8080083,-0.49967104,-0.21326673,-0.83955115,37.737206,24.501307,27.824936,4.5583816,4.293673,5.2565093
5005,-2.4885354,5.64407,8.917451,-0.04444045,-0.04153884,1.1916454,-0.5130444,-0.18238828,-0.838761,27.914669,25.52364,13.62174,3.738495,3.9812574,5.428367
5112,-1.6995022,4.742574,9.317053,0.14553864,0.16798794,0.82390445,-0.50313354,-0.16300346,-0.84869695,10.592427,13.981861,13.62174,2.5847204,3.093297,4.7776113
5219,-0.25064814,3.159124,9.116654,-0.23136522,-0.3269656,-0.67149365,-0.51601243,-0.18560329,-0.8362312,10.592427,7.3304124,13.62174,2.0980947,2.6556835,4.929228
5325,-0.44506496,-1.0809575,14.913267,0.30665433,0.91095275,-1.2403618,-0.5516053,-0.21068,-0.8070598,6.36431,6.7250276,5.995816,1.6220872,1.8937811,5.6768837
5432,-1.6019948,0.94337034,8.502895,-0.45555276,0.010995574,-0.62201357,-0.4553157,-0.2749579,-0.84680915,8.297112,5.8235316,6.410372,1.2965825,1.2950683,5.332795
5539,-3.1746771,4.544568,8.822935,-0.29061916,-1.0363328,-1.2986996,-0.47067118,-0.33162972,-0.8176126,7.2448683,5.6255255,6.9326057,1.6613084,1.9126558,7.013155
5645,0.8470592,0.44386858,9.840484,0.91614515,-0.45463645,-0.21227568,-0.40996966,-0.24166037,-0.8795028,7.2448683,5.6255255,6.9326057,1.3293276,1.499159,7.1024904
5752,-1.8544375,0.54436713,11.833105,0.13836098,-0.819323,0.22434026,-0.4633429,-0.16957939,-0.86980236,5.78405,5.295316,6.9326057,1.2783744,1.1637826,7.6739583
5859,-2.544767,-0.124426775,9.421739,-0.6646214,-1.034653,0.022907447,-0.54484373,-0.19014901,-0.8166937,5.78405,5.295316,6.9326057,1.2090986,0.72710305,6.638035
5965,-2.699702,-0.60000026,8.112267,-0.26526824,0.08032878,0.0061086523,-0.5696756,-0.21535462,-0.7931532,5.78405,5.082953,6.9326057,1.2866718,0.5737893,6.195045
6072,-2.0237296,0.30269206,9.562317,0.0346666,0.04138612,0.322995,-0.5426977,-0.2138543,-0.8122472,5.78405,5.082953,6.9326057,1.3172555,0.43865848,6.1202106
6179,-6.734599,12.768101,18.587446,-2.2382104,1.1462886,1.283886,-0.540291,-0.15802613,-0.82650673,-5.6356955,13.389038,10.47518,2.4067767,2.430554,7.699618
6285,-19.59961,19.59961,-1.7509478,-2.0454824,-3.0540206,1.4030048,-0.6260092,-0.17782019,-0.75927097,-17.701504,20.220547,20.338394,4.1640115,4.5942698,5.825801
6392,14.073386,-19.59961,19.59961,5.003444,-1.6991217,-4.0508003,-0.54282004,-0.1928099,-0.81741714,38.804405,39.19922,32.776882,6.0750065,6.693114,6.2745047
6499,-12.739985,-2.062613,12.164512,0.2237294,0.6247624,-0.7811439,-0.54633707,-0.07790568,-0.83393437,39.19922,39.19922,32.776882,7.2709556,4.650361,5.38383
6605,2.1714864,-4.6785665,12.193226,-0.0053450707,0.040317103,-0.22968532,-0.52078146,-0.098418914,-0.84799784,39.19922,39.19922,32.776882,7.713867,5.395187,7.301857
6712,-0.33499515,-3.4223344,6.5497537,-0.8691085,0.31230485,1.1780536,-0.47640952,-0.17062673,-0.86250824,39.19922,20.723639,23.340788,5.0262465,4.729456,6.909311
6819,-2.9156542,0.98584294,10.884352,-0.9896017,0.14080444,0.84116143,-0.51712126,-0.18772064,-0.8350728,22.423738,6.9990063,9.223135,3.7040434,3.2596478,6.9730053
6925,-4.1838503,0.8404789,10.071988,-0.6009387,0.096058555,0.4360051,-0.5193843,-0.19450128,-0.8321113,7.0079794,8.620143,5.643472,3.2296247,2.5809135,7.1063366
7032,-2.853441,2.842673,10.123434,-0.18295415,0.3379612,0.8321512,-0.5286916,-0.2101366,-0.8223915,7.0079794,8.72782,5.643472,2.3489218,2.0208912,6.1968436
7139,-0.93020976,2.6548367,8.897112,0.30909783,1.36788,0.08460483,-0.4712331,-0.09299174,-0.87709284,7.0079794,6.2650075,5.643472,1.7896682,1.882537,6.0614333
7245,-0.82013994,3.4624143,9.940383,0.027641652,0.37629297,0.054367006,-0.40391666,-0.15493226,-0.90158045,7.0079794,6.2650075,5.643472,1.4045967,2.086077,6.381152
7352,-0.1806581,1.189831,10.402198,-0.09285152,-0.2687807,-0.016798794,-0.40536025,-0.16441457,-0.8992502,7.0079794,6.2650075,5.643472,0.92815787,1.5425535,5.462463
7459,-0.08913264,-0.45643088,8.833703,0.17852537,-0.14706582,-0.045204025,-0.44181395,-0.15728256,-0.88321155,7.0079794,6.2650075,5.643472,0.2959628,1.0240805,5.254344
7565,-0.4576273,-0.91226363,9.434899,0.18707748,0.19792034,-0.09040805,-0.4363431,-0.11461109,-0.8924511,7.0079794,6.2650075,5.643472,0.33227366,0.7997485,5.175738
7672,-0.45403808,-0.38703904,10.386644,0.007941248,0.192728,-0.13652839,-0.41792235,-0.092492156,-0.9037622,7.0079794,6.2650075,5.643472,0.27915287,0.6018591,5.376614
7779,0.061016977,-0.59641105,9.911072,-0.045814894,-0.03940081,0.016340645,-0.40474302,-0.09542808,-0.90943754,7.0079794,6.2650075,5.643472,0.3403493,0.73609644,7.3938236
7885,-0.276371,-0.72023964,9.546165,0.05971208,-0.106901415,-0.04138612,-0.40596274,-0.09120656,-0.90932703,7.0079794,6.2650075,5.643472,0.17036006,0.6177098,7.2845902
7992,-0.4019942,-0.27218357,9.370892,0.0739147,0.06566802,-0.06352998,-0.4265744,-0.097123675,-0.8992226,7.0079794,6.2650075,5.643472,0.17220609,0.5185023,7.2307158
8099,-0.6586244,-0.48454657,9.64487,0.04413501,-0.02611449,-0.03543018,-0.40367815,-0.08714989,-0.9107408,7.0079794,6.2650075,5.643472,0.117524266,0.4007126,6.2671638
8205,-0.06281159,-0.45224345,10.289735,-0.118966006,0.08384126,-0.01450805,-0.41198754,-0.09367223,-0.9063618,7.0079794,6.2650075,5.643472,0.118634224,0.36891016,6.4194183
8312,-1.6815561,1.2065808,8.55434,-0.08002335,-0.12156218,-0.00870483,-0.38031948,-0.111397594,-0.9181218,7.0079794,6.2650075,5.643472,0.33067018,0.3862714,6.2687964
8419,-0.12502497,3.0011978,10.865209,1.1577423,1.0910053,-0.07727446,-0.3936554,-0.09539636,-0.9142948,7.0079794,6.2650075,5.643472,0.42674917,0.7315158,6.351317
8525,19.59961,-14.961721,19.59961,-0.8885035,-2.260354,-0.63453627,-0.26722836,0.06679745,-0.9613153,21.281166,17.96292,11.045269,2.6117234,2.1014426,6.9467278
8632,14.365908,-19.59961,2.9976087,-5.004208,-2.8044822,1.5201383,-0.51137996,-0.42551517,-0.74661064,21.281166,22.600807,16.602001,4.8132997,6.0213647,9.2064495
8739,-8.586045,-0.8500502,-19.59961,1.267698,-0.68936145,1.3223705,-0.6685494,-0.7434799,0.016712194,28.185654,22.600807,39.19922,3.79803,4.595491,9.443791
8845,-5.3138604,5.002196,6.8602223,1.0458013,0.78908515,-0.7015787,-0.656521,-0.6981742,-0.28553978,29.123642,24.601805,39.19922,3.381646,3.355644,6.541952
8952,-0.29132614,5.4352965,3.2183464,1.7333301,0.6293439,-0.86284715,-0.5800827,-0.7166151,-0.38725555,29.123642,25.034906,39.19922,3.4107785,3.8991735,6.8637867
9059,-0.76749784,2.5639093,6.7639112,2.019826,0.7933612,-0.3680463,-0.50065565,-0.6068804,-0.6172845,29.123642,25.034906,39.19922,1.0999833,2.901279,5.420865
9165,1.8873388,0.038285162,7.7575307,2.3043363,-0.28389964,-0.61621034,-0.4264973,-0.42741898,-0.797128,11.41137,14.41197,27.35714,0.9628974,2.0881214,5.1798897
9272,-1.9076778,-1.480559,19.59961,1.9462167,1.0688615,0.4001167,-0.4724347,-0.24506888,-0.84660894,11.41137,6.9158554,22.760529,0.8150227,1.4694114,6.059564
9379,-1.9238293,0.634098,12.030514,0.24953844,1.1453723,-0.15073101,-0.40315536,-0.1440804,-0.90371823,7.201199,6.9158554,13.337593,0.8119011,1.1028394,6.5615864
9485,1.3525429,-0.25004995,9.426524,0.07803804,0.5209153,0.07590001,-0.3351669,-0.18458061,-0.9239011,7.201199,6.9158554,12.477373,0.724724,0.7208781,6.1714053
9592,0.46899322,-0.27936202,9.259625,0.20555615,0.2695443,0.079870634,-0.31240654,-0.1812847,-0.9324902,7.201199,6.9158554,10.457232,0.7838267,0.766581,8.011605
9699,0.2859423,-0.15672988,8.6757765,0.5028948,-0.07788532,0.26251933,-0.27320185,-0.076616645,-0.95890075,7.201199,6.9158554,7.1509495,0.6700967,0.5602079,7.437393
9805,0.6622136,-0.32303107,10.177272,0.5206099,0.06872234,-0.14996742,-0.31232467,-0.065148436,-0.9477389,7.201199,6.9158554,7.1509495,0.5176912,0.21328671,7.4484987
9912,0.7860422,-1.1832508,10.275976,0.42653665,-0.1366811,-0.12843442,-0.310169,-0.012278511,-0.9506021,7.201199,6.9158554,7.1509495,0.53500164,0.3576232,7.5125303
10019,1.6516458,-2.2779672,11.166106,0.68783426,-0.008399397,0.27947086,-0.3521204,0.044861056,-0.934879,7.201199,6.9158554,7.1509495,0.751051,0.8420916,7.696732
10125,0.53718865,-2.5555344,14.062019,0.8002334,0.04337143,0.7733554,-0.3530637,0.10383756,-0.9298192,7.201199,6.9158554,7.1509495,0.6426546,0.9787946,7.216106
10232,5.159524,-5.3838506,19.59961,1.0989466,0.7316638,0.78038037,-0.32474777,0.22091146,-0.9196396,7.4010005,6.9158554,9.447461,1.1335891,1.6820049,9.231887
10339,11.990435,-19.59961,19.59961,-5.004208,-1.2307408,-2.893974,-0.55367064,-0.080733046,-0.828813,19.124037,-17.419748,9.025726,2.7064795,5.112559,10.635031
10445,17.836697,-19.59961,-5.147559,-5.004208,-0.18112154,0.0106901415,-0.5623171,-0.44919106,-0.6942816,24.970299,-17.419748,24.74717,4.490149,7.07252,11.149787
10552,-1.3495519,5.121238,-19.59961,0.86101454,-0.9775371,0.91767234,-0.5707382,-0.8111136,-0.12787738,24.970299,24.720848,39.19922,3.0157447,4.8276596,10.609794
10659,-7.105487,0.0747757,0.4749753,2.065488,-0.5390886,0.7812966,-0.6521108,-0.7169137,-0.24654868,24.970299,24.720848,39.19922,2.5199955,1.4482979,6.413374
10765,-2.4119651,-2.8348963,1.8741783,2.4020748,1.8038851,0.035277467,-0.66021055,-0.53867316,-0.52340543,24.970299,24.720848,39.19922,2.0915508,1.3082411,4.1033506
10872,1.3058828,0.34217364,16.59243,2.627026,2.8608348,-0.8206974,-0.54402536,-0.29663637,-0.7848842,24.942184,24.720848,39.19922,1.4195088,1.1794852,4.8948407
10981,2.1481564,-2.030908,19.59961,1.5738943,2.6587908,-1.1082622,-0.402674,-0.15691884,-0.9017927,9.253643,8.243274,39.19922,1.8264681,1.5214195,8.798731
11085,4.234698,-3.2099714,17.128422,0.6595817,0.21884246,-0.63514715,-0.23014036,-0.05627429,-0.971529,11.563315,5.806184,20.731415,2.6493013,0.8651798,10.140856
11192,0.6969096,0.074177496,7.673782,-0.29917127,0.8752172,-0.18600847,-0.34796566,-0.099731654,-0.9321875,9.771091,5.806184,11.925827,2.1227615,0.81839013,9.369859
11299,0.78125656,-1.2795618,9.696315,-0.15409075,-0.20906863,-0.07437284,-0.305493,-0.10802025,-0.94604737,9.771091,5.806184,11.925827,1.3931185,0.7292396,7.532704
11405,0.910469,-0.7830512,9.869795,-0.13637567,0.38591412,0.113010064,-0.29361588,-0.1235248,-0.94790894,9.222536,5.806184,9.454639,1.1132472,0.65634346,7.096776
11512,1.1102697,-0.6652047,9.575478,-0.058490347,0.20341812,0.06719518,-0.27652988,-0.13423671,-0.9515838,5.1768713,5.806184,6.045466,0.9733203,0.55063164,6.727865
11618,1.2346964,-0.99720883,9.876974,-0.06505714,-0.076052725,0.011453724,-0.25335962,-0.14362408,-0.9566509,5.1768713,5.806184,6.045466,0.92301923,0.56595236,6.58346
11725,0.9349954,-0.9068797,9.631709,-0.13087788,-0.06841691,-0.15241088,-0.23395978,-0.14219154,-0.9617923,5.1768713,5.806184,6.045466,0.7028365,0.49055853,5.4935184
11832,1.317847,-0.67178494,9.520443,-0.12767084,-0.1386664,-0.26297748,-0.24553315,-0.17762125,-0.95297647,5.1768713,5.806184,6.045466,0.6618097,0.46466818,5.410708
11939,1.8107685,-0.3613162,9.400802,-0.15225816,-0.05375614,-0.24938573,-0.13472016,-0.18827097,-0.9728332,5.1768713,5.806184,6.045466,0.7428367,0.3834869,5.3583183
12045,14.646466,-0.8189435,8.301898,-1.3348932,2.0108156,-4.334852,-0.17703721,-0.24582134,-0.95301086,13.929816,5.806184,6.045466,2.1846738,0.39493367,5.1922283
12152,19.59961,-19.59961,-2.3312075,1.2698361,0.10338894,5.003444,-0.16611697,-0.4376839,-0.88365036,18.510876,20.802002,12.4684,6.1045957,3.7494915,5.6888585
12259,-19.59961,-7.9609203,12.284153,1.2912164,-0.12904528,5.003444,-0.39527866,-0.12416511,-0.9101307,39.19922,20.802002,21.26322,7.5826793,5.005748,6.504543
12365,-12.820743,-5.9138613,11.668001,1.2651019,0.9851729,1.3562735,-0.34605587,0.09972945,-0.93289834,39.19922,20.802002,21.26322,5.8316817,3.5948348,5.0695257
12472,-5.091926,-2.4909284,14.907883,-0.28787023,0.57115895,-1.1047498,-0.30251333,0.13952643,-0.94287753,39.19922,20.802002,21.26322,4.2550335,2.480291,5.1857085
12579,-4.6672006,-3.4516466,7.8400836,-1.434617,0.4185954,-2.4675903,-0.26682696,-0.036935408,-0.9630364,39.19922,-18.780666,21.26322,3.7839239,2.069439,4.626094
12685,6.8231335,-3.953541,5.928816,-0.41737366,-0.4448626,-4.168086,-0.24821778,-0.016850501,-0.9685577,39.19922,-18.361324,20.959332,4.554712,2.848243,5.7365427
12792,7.829914,-0.22013968,9.801002,0.19318613,0.018478675,-1.0532844,-0.3366927,-0.15086953,-0.9294495,26.40659,-5.693722,9.732207,5.9255104,2.1498232,6.128228
12899,0.4588237,1.1730813,9.513265,-0.24694228,0.15622878,0.2359467,-0.3318955,-0.18544699,-0.924908,26.322245,5.126622,7.001996,4.4080486,1.5924065,6.526011
13005,0.71365935,0.7130611,8.955736,0.1160644,0.22785273,0.017256944,-0.33507687,-0.1953804,-0.9217104,13.127024,5.126622,7.001996,2.8326058,1.2332506,6.5761857
13112,1.419542,0.25782663,10.072586,0.23075433,0.17073683,0.3623958,-0.3322957,-0.17950903,-0.92593527,10.052247,5.126622,7.001996,2.0679984,0.8021638,5.8872476
13218,0.84885377,0.60418767,9.432507,0.06536258,-0.02443461,0.6088799,-0.32318988,-0.13672313,-0.9364054,5.9228344,5.126622,7.001996,1.4841729,0.6306822,6.0946426
13325,-19.59961,-12.605988,19.59961,2.4300218,0.2932153,1.7681495,-0.30223927,-0.039440483,-0.9524158,21.864416,13.676776,11.111072,2.9665165,1.906705,7.239547
13432,-19.59961,-19.59961,6.620342,-4.268879,-0.72265357,-5.004208,-0.27764687,-0.24812189,-0.92808825,21.864416,20.203796,12.979267,4.9158473,3.8429713,6.181739
13539,19.59961,-4.9034915,-1.5804594,0.46517387,-1.3332133,-0.4989242,0.21211149,-0.5990994,-0.7720678,39.19922,20.203796,27.737598,7.2614226,4.7233353,4.817518
13645,8.644072,1.7078772,5.6685967,-0.4213443,-0.59589905,-0.35811973,0.16002983,-0.58597803,-0.7943678,39.19922,21.307487,27.737598,6.152882,3.047357,4.3411837
13752,10.77787,-0.80159557,6.0921264,0.25488353,-0.06765333,0.9899071,0.11832884,-0.5814228,-0.80495083,39.19922,21.307487,27.737598,8.192703,3.2645655,5.3924704
13859,6.988837,-3.949952,6.9176497,0.8862127,-0.85414237,3.5873063,-0.06747758,-0.4090461,-0.9100154,16.076777,14.228321,16.832909,8.0362215,2.9564865,4.989481
13965,-6.34098,-5.030311,13.842479,0.70982546,-0.79229224,3.1135802,-0.30671382,-0.24635676,-0.9193666,20.72962,7.7425756,9.42174,5.741474,3.260373,6.3414865
14072,-7.256234,-1.0342976,11.618948,-0.07192939,0.36041048,1.498147,-0.34545708,-0.12841672,-0.9296067,22.612173,7.4051876,9.42174,4.9928613,2.3196337,6.2703967
14179,-1.8311075,-1.0247263,10.397412,0.24862215,0.08811731,0.13179417,-0.32099134,-0.1059985,-0.9411317,18.052052,-5.5800624,8.124829,3.8076015,1.5950984,6.4583507
14285,1.0402796,-0.832104,10.112068,-0.035277467,0.03604105,-0.25396723,-0.306834,-0.087677434,-0.947716,9.263812,-5.5800624,6.924829,2.5268462,1.2042376,6.5719247
14392,1.2981062,0.037088748,9.426524,-0.057268616,-0.15470164,-0.09514226,-0.32058266,-0.113807835,-0.94035876,8.850452,-5.5800624,6.924829,1.896363,0.7502634,6.3893013
14499,0.9900303,0.381057,9.466604,-0.059253927,-0.17944166,-0.08903361,-0.33020815,-0.11036906,-0.9374333,7.573283,-5.5800624,6.924829,1.3889086,0.51450104,6.34498
14605,0.41036907,0.6867401,8.886943,0.07651087,-0.20280726,-0.0777326,-0.3338058,-0.10998541,-0.9362035,7.573283,-5.5800624,6.924829,0.9373014,0.4141284,5.2459474
14712,7.7042904,-19.59961,14.013565,0.20280726,-0.70249504,-0.3996586,-0.32260647,-0.14602092,-0.93520206,7.9435725,20.28635,5.126622,1.5446824,3.0303366,5.718118
14819,-11.8079815,-9.568897,7.1204414,0.008552114,-1.3129021,1.7411187,-0.3950191,-0.14303754,-0.9074691,19.512272,20.28635,7.841878,2.9688904,5.9471874,7.926394
14925,17.187645,8.584849,13.737194,3.1413746,4.1393757,-5.004208,-0.25855276,-0.07709817,-0.96291554,28.995626,29.922844,14.796617,4.36307,6.114934,6.7183695
15032,0.16271193,0.56171507,9.591031,-1.2878566,-0.29626966,0.95172805,-0.25639176,-0.0907994,-0.9622987,31.40759,30.826733,19.354345,4.610106,5.3633776,8.813736
15138,-1.3758729,0.08015956,10.293922,0.29153544,0.44241914,0.926988,-0.2702983,-0.11991039,-0.95528024,31.40759,20.79602,19.354345,3.1829531,3.4980466,7.526009
15245,9.390034,9.777073,10.219147,-0.547488,1.476003,0.8550586,-0.19463807,-0.13139953,-0.97203404,23.14637,12.958929,13.925629,3.5416172,4.417533,8.124221
15352,-11.413764,-7.918448,12.772288,-1.1982123,-0.7469355,0.84421575,-0.2164769,-0.20206346,-0.9551482,20.803799,17.90908,13.121641,3.6743228,3.7040796,7.15573
15459,-4.9507494,-13.260424,11.343176,0.33872476,-0.8165741,0.05665775,-0.3223141,-0.1769898,-0.9299399,20.803799,23.251057,9.25424,3.1840718,4.602983,6.6542926
15565,-1.3716855,-2.815754,9.268001,0.02107485,-0.8698721,0.29123002,-0.3040769,-0.13429016,-0.9431349,20.803799,23.251057,5.124828,2.9013228,3.796913,6.3345985
15672,-0.2338984,-0.61375904,9.497711,-0.1815797,0.6327037,-0.07360926,-0.31604296,-0.15616514,-0.93580407,19.344175,15.877573,5.124828,1.7746282,2.4202096,5.292361
15779,1.012164,-1.0223335,12.3607235,0.043676864,0.4147775,0.036651913,-0.29894578,-0.16110756,-0.940572,12.881161,13.593026,5.124828,1.3429425,1.5937331,5.557962
15885,-4.2729826,19.59961,19.59961,-1.9375119,-0.820392,1.4949399,-0.30352244,-0.18793161,-0.93410695,8.051847,23.930618,10.889735,1.5754766,3.7594554,7.2609205
15992,-5.4634123,-9.165109,-18.575481,1.7704402,1.554652,-2.0847304,-0.40912467,-0.2613556,-0.8742484,16.357933,28.764717,38.17509,3.425667,6.635927,10.183155
16099,-4.512863,-1.2329018,-3.4133615,0.2564107,-1.6003143,0.56581396,-0.2176889,-0.0013956036,-0.97601724,27.299713,39.19922,38.17509,5.0759797,7.908537,8.472267
16205,2.9066813,-4.8071804,9.062217,-0.10797043,-0.59834254,-0.58169645,-0.2533783,0.00019861707,-0.96736723,27.299713,39.19922,38.17509,4.120264,6.3337173,8.5464325
16312,4.444668,-13.574483,6.4211397,-1.4318681,-1.776396,1.2548699,-0.27507028,-0.062348872,-0.9594003,21.29253,-18.366707,38.17509,3.634831,6.837739,8.1325865
16419,-6.932007,12.177074,4.6737804,-0.2667954,1.7421876,1.0199922,-0.4421313,-0.17721663,-0.8792691,12.212967,30.126833,18.050856,3.7151165,7.890123,6.076801
16525,0.9750752,12.267403,13.365709,0.013897184,1.2370021,-0.15225816,-0.2871455,-0.18280874,-0.94028103,12.113665,34.92504,11.547164,2.3452415,7.658342,6.172183
16632,-0.22851455,1.1623136,9.795019,-0.2507602,-1.0751228,0.2921463,-0.25348264,-0.21551421,-0.94302714,12.113665,34.92504,11.965907,1.7850434,5.3745866,6.5965195
16739,-2.8953152,-5.589035,6.934998,0.32681292,-0.18845192,0.08353582,-0.33326206,-0.1913904,-0.92320424,9.514461,24.72324,11.965907,1.444426,4.0553484,5.7478266
16845,-11.123634,-8.4813595,9.40798,1.1650728,-1.5346462,1.6934711,-0.36376375,-0.17114235,-0.91563433,23.003399,31.867012,7.881957,3.311534,6.4172826,6.5220256
16952,-6.2626147,10.158729,6.6119666,3.593873,2.4226916,-3.9272525,-0.406438,-0.060429215,-0.91167784,23.003399,29.758339,7.898707,2.8526914,5.1299076,4.9551935
17059,2.522035,2.781058,14.150555,-1.2895366,-0.4089743,0.93324935,-0.23143767,-0.019358275,-0.97265714,30.68496,31.951958,11.883953,4.0737853,4.6488204,6.5182023
17165,-4.9848475,7.7982087,14.537594,0.13637567,0.8750645,1.0164797,-0.2274531,-0.10106715,-0.96853006,30.68496,31.951958,11.883953,3.0620623,3.743909,6.3166533
17272,10.095319,3.7298121,8.489137,-1.2655602,0.7330383,2.7673721,-0.15303494,-0.16215996,-0.9748253,25.82394,12.61855,11.883953,4.69977,5.078625,8.51488
17379,2.3575284,-10.219746,7.6558356,-0.118202426,0.5119051,0.27565295,-0.2604759,-0.22332492,-0.93929666,21.630518,22.572094,9.624531,3.8910089,5.6226897,7.569647
17485,-2.12363,-2.266003,9.357133,-0.0025961774,-0.6122397,0.50701815,-0.2686224,-0.21171108,-0.93969166,16.121044,19.837097,6.881758,3.130458,4.9339733,7.426455
17592,0.8668,-0.7878368,10.757531,0.019089539,0.13790283,0.33078352,-0.29404494,-0.19452524,-0.9357871,16.121044,13.949558,5.8372912,2.090877,3.2021189,7.411547
17699,0.23090737,-0.54436713,10.786245,-0.02565634,0.13011429,0.24465153,-0.27511424,-0.17232625,-0.9458413,6.4241304,-9.675379,5.8372912,1.3010668,2.0493472,6.5501
17805,-4.1796627,-3.1262226,15.752549,0.47616944,0.2406809,1.345278,-0.27795935,-0.17582932,-0.94436365,5.7140603,-8.741578,7.4243307,1.2523491,1.610426,7.276877
17912,-19.59961,-1.4009975,-7.5272217,-0.70646566,-4.502535,-3.1671834,-0.4410744,-0.2887007,-0.84976774,20.46641,-7.0295143,27.126831,5.595918,1.7836558,7.7975173
18019,19.59961,-16.164713,10.715059,3.4917057,-3.7449095,-3.1676419,-0.0018272366,-0.42900035,-0.9033025,39.19922,-18.6365,27.126831,7.8124123,5.276596,6.0814943
18125,3.2620153,0.18783657,4.802993,-0.6137668,-0.63850695,1.5526668,0.03579271,-0.39844552,-0.91649336,39.19922,19.975882,27.126831,7.847672,3.5881832,5.939629
18232,6.6640105,-0.94815594,9.159126,-0.95004815,-0.35414913,0.15454891,-0.08702232,-0.41057807,-0.90766335,39.19922,19.975882,27.126831,5.7859354,2.2644873,4.8080335
18338,0.9750752,-7.3268228,-1.0001998,1.1027645,-3.7786596,5.003444,-0.23825075,-0.38473535,-0.8917484,18.624535,17.434704,21.695124,5.6508603,2.756639,3.6274564
18445,-17.29891,-2.120639,9.117252,-1.5540411,0.5687155,-0.731053,-0.51114166,-0.1591641,-0.84463066,39.19922,11.830115,16.690535,7.47236,2.9185543,4.9152985
18552,7.1216383,-0.6801598,9.602397,-0.62995476,1.4902058,-2.2094996,-0.2957458,-0.35873857,-0.88534796,39.19922,-10.530214,16.690535,5.6658053,1.8422632,4.7610006
18659,19.59961,-2.6721845,9.661021,-3.0216448,-0.7646505,-4.205502,-0.18723263,-0.4691904,-0.8630205,39.19922,-10.530214,16.690535,9.323355,2.2303193,6.9079604
18765,-12.272189,-19.59961,13.542777,0.420428,2.1740694,5.003444,-0.39500853,-0.30530876,-0.8664611,39.19922,-19.569698,13.265209,9.874593,6.0135274,6.9413877
18872,-18.5025,2.5603201,10.646864,-0.24969116,0.24297166,-0.9998337,-0.36594433,-0.1283185,-0.92174786,39.19922,22.15993,17.041084,9.734966,5.208197,7.17614
18978,-5.4843493,-3.1381867,12.416954,0.019394971,-0.71440685,-1.5882496,-0.339938,-0.15848199,-0.9269982,39.19922,22.15993,17.041084,6.389415,3.438737,5.5473795
19085,-1.6325032,-7.719246,1.1371889,-1.3419182,-2.7409523,-5.004208,-0.35694653,-0.29885957,-0.88502663,39.19922,22.15993,18.329021,6.250256,3.725835,5.1574774
19192,15.378671,-3.068795,11.959926,0.66477406,-2.44453,0.16722436,-0.3042606,-0.3923616,-0.868031,39.19922,22.15993,18.544973,7.586279,3.3082871,5.2611513
19298,-1.3274183,2.2677977,9.768698,-0.51083606,-0.060170226,1.3107641,-0.40516475,-0.33410546,-0.8510083,39.19922,12.8931265,16.50569,8.244724,3.5740101,7.980714
19405,0.37387854,2.970091,7.871788,0.9066767,0.24266623,0.30176744,-0.34658358,-0.34805056,-0.8710572,37.555946,13.302897,16.50569,5.3884296,2.8514254,7.4260964
19512,0.08973085,0.32004002,10.289137,0.701426,0.91690874,-0.0739147,-0.34074333,-0.27268955,-0.8997413,22.885553,7.2209406,9.555138,3.5341945,2.1921713,7.5048914
19619,13.817354,-11.94497,19.59961,-4.5318565,-4.6503644,0.44241914,-0.25872445,-0.07184849,-0.9632754,17.103298,14.915061,11.727821,4.444725,3.7416248,9.675021
19725,13.841881,-19.59961,-4.308277,-5.004208,-3.0961707,1.3275629,-0.49211726,-0.6450407,-0.584588,15.650256,22.5697,23.907887,4.9735756,6.164897,8.195801
19832,-3.4971104,-3.441477,-19.59961,3.3808336,-0.06704246,2.5897634,-0.65605146,-0.74910915,0.09182614,17.338991,20.974285,39.19922,3.5845046,4.703146,8.837402
19939,-9.68136,0.13639088,14.544771,3.7905715,2.5173757,0.5296202,-0.73004663,-0.6078016,-0.3124245,23.523241,20.974285,39.19922,3.1188388,2.8355267,6.7569184
20045,-0.5024927,8.183454,15.128023,-0.11713341,1.5767959,-1.6161968,-0.6326801,-0.6187545,-0.46568093,23.523241,27.783062,39.19922,3.1690881,3.653872,8.269721
20152,-4.328616,4.4608192,8.338388,-0.8527679,-0.3903429,0.49602258,-0.5999736,-0.6733433,-0.432019,23.523241,27.783062,39.19922,1.3835881,3.3883157,6.966659
20259,-4.9501514,2.6691935,4.371687,-0.80603665,-0.29703322,0.7134906,-0.63993835,-0.6726932,-0.37143338,23.523241,27.783062,39.19922,1.325168,2.2999089,4.617164
20365,-5.5393844,2.7930222,2.0003996,-0.5986479,-0.26939157,0.25488353,-0.674435,-0.6777581,-0.2928846,23.523241,27.783062,39.19922,1.8791064,2.579211,4.817204
20472,-2.9982066,-0.99661064,1.2478569,-0.441961,-0.37797287,0.6392704,-0.68519557,-0.6755191,-0.27236187,23.523241,27.783062,34.72763,1.4272845,1.6471877,3.015108
20579,-3.371487,1.2023933,-19.59961,1.3697126,2.2175937,-0.92271197,-0.7879404,-0.60485697,-0.11531704,-9.6580305,11.62493,34.72763,1.4622095,1.2551721,3.9805393
20685,19.59961,-19.59961,10.085748,5.003444,5.003444,-5.004208,-0.2986229,-0.5811853,-0.7569994,29.28097,27.783062,34.72763,3.4221704,3.215133,4.9891143
20792,0.16510475,-4.400999,15.697515,-0.70341134,-3.0723467,1.4596624,-0.21797466,0.12750025,-0.96759015,25.138994,24.060429,39.19922,5.3089166,5.0273066,8.483142
20899,-0.8991031,-4.890929,8.082954,-1.3593279,-1.6557503,0.6884451,-0.35665515,0.0006443341,-0.9342359,24.077778,20.802002,39.19922,3.7706344,4.4046397,7.6510425
21005,0.5988038,-2.9653053,8.054839,-0.19685133,0.6939429,-0.096058555,-0.4035461,-0.04631224,-0.9137865,22.971096,20.802002,39.19922,1.1910707,3.27084,6.164445
21112,0.47736812,-1.8394823,10.435698,0.33658674,0.56596667,-0.043218713,-0.30206293,-0.049712505,-0.9519909,15.305092,-5.1421757,14.037493,0.88348,2.5894713,6.185934
21219,2.0895324,-2.5112674,9.053244,-0.08002335,0.1282817,-0.06093381,-0.27106136,-0.052037578,-0.9611544,15.305092,-5.1421757,5.92104,0.8973384,2.1375554,6.3557253
21325,1.4177474,-2.777469,10.562517,-0.006566801,0.9396634,-0.15195273,-0.2578198,-0.057468425,-0.9644824,15.305092,-5.1421757,5.92104,0.7713443,1.7229084,5.4900856
21432,2.1571295,-2.271985,7.9776707,-0.18768834,0.35720342,0.038179077,-0.1733682,-0.07417287,-0.98206,15.305092,-5.1421757,5.92104,0.9188188,1.5693305,5.224473
21539,0.9326026,-4.6654058,12.379268,-0.07742717,0.26190847,-0.8680395,-0.16494468,-0.07388639,-0.9835314,15.305092,-5.1421757,5.92104,1.2111619,2.271983,7.344215
21645,13.11506,-7.759325,16.786247,-1.3174837,-0.8552113,2.3889413,-0.058382418,-0.11142157,-0.9920568,13.670793,-5.876772,8.808577,3.983807,3.691406,9.061706
21752,-16.88914,7.554739,-8.0004015,-1.7782288,-3.2794302,-0.3370449,-0.29611078,-0.2694704,-0.9163537,31.492535,15.703496,24.786648,5.020116,3.7677257,7.304322
21859,19.59961,-7.561319,19.59961,-1.1632402,0.36957344,0.74342304,-0.06299656,-0.24067128,-0.96856016,36.488747,15.703496,27.60001,7.605152,4.19924,7.9219365
21965,-10.164711,4.3567314,1.53021,-1.128268,-0.88331115,1.7905988,-0.23019782,-0.33673683,-0.91302645,36.488747,15.703496,27.60001,5.8578477,3.0066032,5.769035
22072,19.59961,-12.887742,19.59961,1.3261884,5.003444,-3.2290335,-0.17362477,-0.3299298,-0.92790127,36.488747,20.442482,27.60001,7.10484,2.39186,5.63408
22179,-9.692726,5.230112,-1.6923237,-1.2875512,-0.8959866,1.0832168,-0.23554191,-0.40824124,-0.8819632,34.165916,19.591234,22.447666,6.8167872,2.4807794,5.2582273
22285,-5.4562335,0.70049876,0.6813562,2.7980683,1.3069462,-1.5099062,-0.31662425,-0.39981335,-0.86017346,34.165916,19.591234,25.421347,5.291951,1.9208865,3.5723763
22392,-1.3393824,0.8566305,13.873585,-2.144137,-4.9490776,2.401922,-0.2025364,-0.29723373,-0.93307614,30.5372,18.927227,25.421347,5.615766,2.1098404,5.882737
22499,-3.685545,1.9250258,-4.6863427,1.9025397,1.5653422,-2.0593796,-0.43205297,-0.45620596,-0.7779501,31.937004,18.68615,25.421347,4.9743614,2.134798,4.2969728
22605,19.59961,-4.2514477,19.59961,-0.4514294,-1.5097535,1.6255125,-0.1066975,-0.3490253,-0.9310193,31.937004,18.68615,25.421347,8.641302,3.5727048,8.216894
22712,-4.920242,6.9625154,-6.960721,-0.33643404,-0.81413066,-0.50610185,-0.3797353,-0.5071241,-0.77370936,31.937004,18.324234,26.56033,6.6908836,3.448788,7.200746
22818,19.59961,-11.28814,19.59961,1.5838209,3.2876766,-1.3316863,-0.19209929,-0.34017357,-0.92053235,31.937004,19.484753,26.56033,6.513415,4.0873795,7.836042
22925,-3.7722847,2.5369902,6.932605,-2.5331054,-2.6329818,2.0592268,-0.28645745,-0.35106137,-0.8914584,25.957338,18.250656,26.56033,5.099794,2.8449104,7.3548465
23032,-3.470789,-1.7270195,-1.1216356,1.807703,1.9072739,-1.8788688,-0.43028104,-0.4911478,-0.757385,31.363323,18.851254,28.876583,5.1900506,3.0571442,5.631118
23139,-5.2695932,4.820341,13.546366,-0.84620106,-3.5816555,3.2178853,-0.21373956,-0.44509366,-0.86960167,31.363323,21.357138,28.876583,6.651448,3.4008315,7.843151
23245,-13.327423,8.867203,-3.5234313,-1.0534371,-1.5778649,-0.6046039,-0.40244654,-0.49106038,-0.77259076,32.927032,22.661226,28.876583,6.041386,3.420739,5.2967386
23352,19.59961,-9.685548,19.59961,1.200961,2.789669,-0.43172902,-0.1021813,-0.45608917,-0.88404846,32.927032,22.661226,28.876583,6.3551497,3.8366516,5.764146
23459,-10.251451,11.5519495,5.032106,-1.5505288,-1.2325734,0.28130344,-0.3380075,-0.4605437,-0.8207621,32.927032,23.489742,23.123041,5.6707935,4.2071204,5.498285
23565,-3.6287155,-1.7353945,-2.6961129,0.8886562,-0.20005836,-2.5961773,-0.38942203,-0.54215217,-0.7445949,32.927032,23.489742,23.123041,7.2767963,5.1012583,5.999342
23672,-0.61675,4.5684967,15.469598,0.29703322,-3.289815,3.7809505,-0.17792495,-0.4291422,-0.8855392,32.030922,26.188847,22.295723,7.326717,6.003149,8.212907
23779,-9.616156,5.4442697,-0.77527446,-0.9596693,-2.1474967,-1.5441146,-0.40126058,-0.45925912,-0.7925093,32.030922,26.188847,22.295723,7.242891,6.282449,6.9322715
23885,7.617551,-11.904292,7.3752775,2.5060744,3.0523407,-1.4711162,-0.33605522,-0.45952407,-0.82213414,32.030922,25.706692,22.295723,5.1891446,5.275871,5.144488
23992,-6.5359945,8.116454,15.857235,-1.5847372,-0.8330675,2.1513147,-0.37064186,-0.32953689,-0.868349,29.62733,22.974087,22.075583,4.965675,4.6087894,7.808354
24099,-7.3256264,1.6504493,-6.136393,0.6232353,0.15974127,-2.1174116,-0.553249,-0.46112224,-0.6937448,31.549366,22.974087,25.736002,5.425659,4.214642,6.2935157
24205,19.59961,-17.431114,19.59961,2.7649288,5.003444,-2.7183504,-0.34791264,-0.41605657,-0.840151,31.549366,25.611576,25.736002,5.245865,4.7173924,5.8298926
24312,-11.012965,10.727023,9.809975,-1.617724,-0.9702067,1.3338243,-0.37660602,-0.37266275,-0.8481099,31.549366,28.158138,25.736002,5.847173,4.580929,6.635919
24419,1.7467605,-7.526025,2.711666,2.1308508,1.1375837,-2.4281893,-0.4251601,-0.47131634,-0.7727223,32.195427,28.158138,25.736002,4.9036064,4.198548,4.5619664
24525,12.5042925,-1.0366904,19.231714,0.4343252,-1.0329732,2.8950431,-0.18359129,-0.39354655,-0.900786,32.195427,28.158138,24.503698,8.020916,5.875318,8.445099
24632,-6.9248285,8.418548,1.3627124,-1.9575176,-2.3509147,-0.1320996,-0.3951811,-0.4541489,-0.79848653,31.26462,26.458036,24.503698,7.25263,6.039509,8.341697
24738,13.628321,-10.644471,14.1828575,3.4109187,2.811049,-1.118647,-0.34742874,-0.4455638,-0.8250856,29.643482,26.053051,28.00978,6.421669,5.461393,7.5735936
24845,-6.0119667,7.855636,14.845071,-2.1586452,-0.8333729,1.1004738,-0.37011787,-0.35321862,-0.85921437,24.603,20.966509,28.00978,5.806143,4.8583717,9.948585
24952,-11.577672,5.3168516,-10.419546,-0.7707592,-1.7125607,-1.4457653,-0.5084459,-0.47298375,-0.71956176,25.205994,20.966509,30.019156,5.4596186,4.2934685,7.1875763
25058,19.59961,-6.349953,19.59961,0.8865182,0.19364429,2.3481658,-0.20464627,-0.38968953,-0.8979209,31.17728,25.23351,30.019156,6.9430947,5.191137,8.235842
25165,-10.586446,8.636893,2.518446,-2.4139867,-2.541963,0.31871894,-0.34891695,-0.36334223,-0.8638515,31.17728,26.85345,30.019156,6.624566,5.318448,7.833973
25272,0.038883366,-5.1768713,-4.6695933,1.892155,1.3585644,-1.7986927,-0.41733977,-0.49350387,-0.7630737,31.17728,26.85345,30.019156,2.286317,3.877701,5.7582746
25379,0.96969134,5.015954,19.59961,-0.6606508,-2.111303,2.911231,-0.27299964,-0.29565978,-0.91545427,30.186054,26.85345,29.448467,3.2028618,4.1156383,7.220992
25485,-8.895318,2.4885354,-5.919843,-0.72876227,-1.3434453,-1.4165965,-0.44513342,-0.43489507,-0.7827659,30.186054,23.417358,29.448467,3.963357,3.7399838,6.015958
25592,12.139387,-10.189835,12.902698,3.0947962,3.5918877,-1.3089316,-0.35653824,-0.40577167,-0.84156394,29.964119,22.35255,29.448467,5.283417,5.339586,7.651452
25699,-4.1431723,7.323832,12.244074,-2.5149322,-1.1650728,0.89552844,-0.35869128,-0.3525406,-0.86432385,29.964119,19.21257,25.519453,5.3423147,4.8817782,9.735201
25805,-3.8955152,-3.2327032,-7.0863442,2.198046,0.5933029,-1.3376422,-0.51878613,-0.47017616,-0.7139995,25.896322,18.19622,30.55455,5.0811224,3.9256773,4.7246885
25912,17.35215,-7.5918274,19.59961,2.879619,4.174653,-1.1739303,-0.28469968,-0.26747972,-0.9205437,27.271595,17.513666,30.55455,3.2595518,4.0891857,5.068573
26019,-9.208179,7.7096744,-0.36729825,-2.4882069,-2.769663,0.564134,-0.40681317,-0.34984127,-0.84386855,27.271595,17.45564,30.55455,3.7997956,3.6896317,5.8046384
26125,-0.53659046,-7.9005017,11.28814,2.745381,4.462676,-1.8944458,-0.32199875,-0.37460744,-0.8694746,28.13361,17.45564,30.55455,3.3924682,3.6551914,5.716124
26232,-7.8598237,-4.9178486,1.7180467,-4.030794,-3.3084462,3.257439,-0.34064713,-0.48544833,-0.8051705,30.38107,27.309284,29.802006,5.358836,4.8073573,6.3096995
26339,-12.344571,6.1890354,-18.790237,-0.048105635,-3.8143952,1.0282389,-0.5724695,-0.6130847,-0.5444317,31.94418,27.309284,38.389847,4.7406664,3.5801992,6.1469135
26445,7.0959153,-7.304689,19.59961,3.7517817,5.003444,-3.2368221,-0.40135306,-0.38428628,-0.8314083,31.94418,27.07359,38.389847,4.664967,3.7553306,6.4857645
26552,5.309075,-2.8654048,16.397415,-4.749935,-3.3608277,4.198935,-0.33639243,-0.4542622,-0.82491577,31.94418,27.07359,38.389847,7.155835,4.643905,10.085467
26659,-2.667399,-0.66341007,-17.956936,0.107664995,0.10262536,0.45112398,-0.6129131,-0.6586979,-0.43641102,31.94418,14.778669,38.389847,5.125964,3.2438507,8.372079
26765,-2.6805596,2.2959132,19.59961,4.7817006,5.003444,-2.9083292,-0.3836384,-0.3364811,-0.8600012,31.94418,14.778669,38.389847,4.226825,2.2705977,7.401892
26872,19.59961,-4.5750766,19.59961,-4.187634,-3.9732203,1.4165965,-0.22792746,-0.339621,-0.9125276,28.431519,14.778669,37.556545,5.672033,2.1129632,7.5770726
26979,1.1503495,-12.634103,-1.3686945,-5.004208,-2.744312,4.8556147,-0.50579953,-0.5813779,-0.63731194,28.431519,14.930016,37.556545,6.5163403,3.867261,8.731969
27085,-14.979069,9.220741,2.1361923,5.003444,3.185662,-1.9512563,-0.6749457,-0.45547217,-0.58051133,34.57868,21.854843,39.19922,6.4839425,3.2790408,7.412761
27192,7.3112693,-0.17048861,19.59961,-1.1667526,5.003444,-5.004208,-0.3778384,-0.4875246,-0.78712,39.19922,21.854843,39.19922,6.5814533,2.4044735,8.3675785
27299,17.101503,-3.546163,-0.44027936,0.2603813,1.6636915,5.003444,-0.2767075,-0.7149036,-0.6421416,39.19922,21.854843,39.19922,8.79496,2.5116897,6.486821
27405,-19.59961,-2.0410776,10.673783,0.67027193,3.1592422,-0.624457,-0.6551435,-0.16669361,-0.7368855,39.19922,20.718254,39.19922,9.441899,3.489527,5.725641
27512,-6.8350973,3.3936207,12.153744,-2.4909558,1.8579466,-5.004208,-0.45543808,-0.32281598,-0.82967824,39.19922,15.697515,20.039888,7.524626,2.540576,5.6416745
27619,19.59961,-4.5140595,2.3838494,-0.26389378,-1.5612189,4.0275874,-0.043051466,-0.6729602,-0.7384247,39.19922,14.891133,16.95554,8.4135685,2.3204973,4.344718
27725,-19.59961,-3.0622146,13.505091,1.2777773,0.46807548,0.61544675,-0.5684827,-0.27033985,-0.77700955,39.19922,15.707085,14.131412,8.3779335,2.9204028,4.70731
27832,-7.233503,5.5657053,12.346366,-1.716684,1.0433578,-5.004208,-0.3672134,-0.32830706,-0.87026936,39.19922,17.87917,14.131412,10.86587,3.6112106,7.298677
27939,19.59961,-4.5397825,2.804986,-0.016798794,-1.9564487,0.91828316,0.06314357,-0.6953257,-0.71591556,39.19922,17.87917,11.81516,10.798488,3.005949,5.5612006
28045,-19.59961,-5.395815,16.08216,1.6917913,1.1803445,4.400215,-0.5068783,-0.24288799,-0.82709116,39.19922,20.471794,17.807983,10.975684,4.421377,6.2533917
28152,-11.870194,3.88056,9.783653,-2.015397,0.7608326,-4.995045,-0.414363,-0.31403115,-0.85421765,39.19922,20.471794,17.807983,9.732391,3.1042922,6.271857
28259,19.59961,-8.479565,3.609573,0.8142834,-1.1530081,-0.5384777,0.0664007,-0.629089,-0.7744921,39.19922,18.786648,17.807983,9.844745,3.1257463,4.4610524
28365,-19.59961,-0.91585284,17.107485,0.57558775,2.5830436,1.4633276,-0.40413302,-0.34161586,-0.8485135,39.19922,18.786648,16.800007,10.560647,3.5129879,5.664812
28472,-8.364709,5.392824,10.256834,-2.0042489,-1.2124147,-4.831028,-0.27230278,-0.44646117,-0.8523635,39.19922,15.41217,16.800007,8.156632,2.882457,5.356766
28579,19.59961,-10.365707,4.3788652,-0.11667526,-2.4523187,3.9185479,0.05671156,-0.6216054,-0.781275,39.19922,15.758532,16.800007,8.334355,3.0639155,4.32342
28685,-19.59961,1.9932213,13.512867,-1.2556335,1.479363,-2.0228803,-0.46368954,-0.33839342,-0.8188296,39.19922,15.758532,16.55235,8.486321,3.0528502,4.8879075
28792,1.6211373,3.7866418,2.2265213,-2.232407,0.6288858,-5.004208,-0.26351923,-0.5908657,-0.7625191,39.19922,15.969698,14.981462,9.923571,3.9919136,5.790779
28899,15.586248,-6.6053867,1.6253247,2.1809416,-1.5845845,5.003444,-0.046087127,-0.6006678,-0.79816926,39.19922,15.969698,16.507484,11.432689,4.196764,4.3357043
29005,-19.246668,1.692922,11.326426,-1.8993328,-0.13683382,-3.1305318,-0.37907818,-0.3576838,-0.8534413,39.19922,19.797615,19.450058,12.704202,4.1239414,7.2950635
29112,10.369297,-2.4323041,0.80279195,-1.9850066,2.4443774,-5.004208,-0.15025091,-0.6243173,-0.76658505,39.19922,19.797615,19.450058,9.272253,2.905013,4.9820633
29219,-6.3248286,-5.601598,15.911672,3.4750595,-0.3764457,5.003444,-0.13674022,-0.4878773,-0.86213565,39.19922,16.067802,20.361124,9.331772,3.4887514,5.2810235
29325,-2.8923242,3.767499,5.937191,-2.8507555,-0.3689626,-5.004208,-0.13949084,-0.3899349,-0.910216,39.19922,15.232111,21.863817,8.660764,3.1916041,6.4084
29432,19.59961,-10.661221,3.0759733,1.586417,-0.84116143,1.3185526,0.17711616,-0.56094015,-0.80868787,39.19922,17.14577,21.863817,8.332396,3.2694077,4.264729
29539,-19.59961,2.900101,17.882162,-1.3446671,0.5858197,-1.1217014,-0.3730985,-0.26483324,-0.88919115,39.19922,18.568304,17.731413,8.845038,3.5146344,5.758197
29645,19.59961,-5.096712,-1.5290135,-0.11484266,3.2991304,-4.9759555,-0.0062472234,-0.66501385,-0.7468049,39.19922,18.568304,20.723038,8.349568,2.9632337,4.370962
29752,-19.59961,-19.59961,18.150158,4.061185,-2.7375925,5.003444,-0.3805359,-0.28890753,-0.8784787,39.19922,25.092932,20.723038,8.947801,5.074747,4.6728673
29858,-19.59961,-5.1026945,15.026926,-1.5613716,-0.27305678,-3.121827,-0.39747626,-0.111925945,-0.9107608,39.19922,25.092932,20.953348,12.8677225,6.3193736,8.117993
29965,19.59961,-7.8610206,-0.3194418,-2.8145616,2.0857995,-5.004208,0.036571667,-0.53906834,-0.8414677,39.19922,19.85265,20.953348,11.228631,5.007597,6.552472
30072,7.7778697,-17.09911,6.038886,3.336088,-1.1876748,5.003444,-0.14208928,-0.57609993,-0.80493444,39.19922,-18.090935,19.944176,11.434887,6.672695,4.657944
30179,-19.59961,-7.897511,13.869397,-1.2724323,0.46838093,-0.6559165,-0.48596534,-0.13514937,-0.8634653,39.19922,-15.590435,19.919052,10.780854,6.4768386,6.141667
30285,-0.31764722,-2.298306,6.9631133,-1.8616118,0.39461896,-5.004208,-0.26452795,-0.54655474,-0.7945457,39.19922,18.287745,19.919052,8.600003,4.4330664,5.888275
30392,19.59961,-8.806784,-0.832104,-0.061544675,-2.663525,5.003444,0.04742237,-0.69221973,-0.720127,39.19922,18.287745,20.431713,10.2559,4.788519,3.9812126
30498,-19.59961,-9.341579,19.59961,1.7803668,-0.07223482,5.003444,-0.50586486,-0.3754069,-0.7766405,39.19922,18.023338,20.431713,8.135898,4.535345,4.6261005
30605,-4.720441,-0.16749758,3.3254251,-1.354899,1.0693196,-5.004208,-0.3964594,-0.5557023,-0.7307632,39.19922,13.323236,20.431713,7.705536,2.7956,4.217491
30712,19.59961,-10.893923,5.076971,1.1375837,-1.6659822,5.003444,0.03338244,-0.6716913,-0.7400786,39.19922,12.709477,20.431713,8.660624,3.6782024,3.3767643
30818,-19.59961,-8.622536,19.59961,2.314263,-0.46761733,5.003444,-0.4402936,-0.3617309,-0.82176167,39.19922,12.709477,20.047665,10.79544,5.5803165,5.974233
30925,6.565905,-2.6775684,-0.421735,-1.6917913,2.4853053,-5.004208,-0.23975633,-0.59935874,-0.76373166,39.19922,11.468799,20.047665,10.369728,1.9962885,5.2844605
31032,10.066006,-9.8117695,2.021935,1.3920091,-2.2308798,5.003444,-0.15004466,-0.53473294,-0.8315932,39.19922,11.43829,20.021345,11.148359,3.5420215,4.165552
31139,-19.59961,-0.9421739,19.59961,0.5007568,0.86177814,2.6241245,-0.4407897,-0.18072113,-0.87922937,39.19922,11.6135645,20.021345,10.450294,3.32635,6.0419054
31245,6.5479593,-1.9806589,-1.1210374,-1.3863587,2.0048597,-5.004208,-0.222825,-0.5003878,-0.8366368,39.19922,11.6135645,20.720646,8.944119,1.2468483,4.971046
31352,4.3878384,-5.681159,8.637491,1.9631681,-0.5163338,5.003444,-0.17457882,-0.3803088,-0.90823317,39.19922,-10.998012,20.720646,8.941193,2.7373462,4.8102174
31458,-19.59961,1.4051851,16.457235,-3.2200234,-2.5847235,-0.47708577,-0.37595707,-0.24807298,-0.89281356,39.19922,12.474382,20.720646,8.500653,2.0872574,5.7078304
31565,19.59961,-2.4741786,-5.834898,0.73823065,1.3564262,-5.004208,-0.021053115,-0.6878853,-0.72551405,39.19922,12.323634,25.434507,8.134683,1.6245699,4.380715
31672,-19.59961,-7.3328047,19.59961,3.0955596,-0.7093672,5.003444,-0.310794,-0.3414737,-0.88701904,39.19922,12.323634,25.434507,8.524085,2.5891435,5.5089564
31778,-13.850256,0.93320084,2.3964117,-4.0645447,-0.6925685,-5.004208,-0.39334077,-0.49270463,-0.776225,39.19922,8.750552,25.434507,11.853997,2.8078475,7.333424
31885,19.59961,-6.7118673,5.195416,2.5705209,-1.9303341,3.3718235,0.02636003,-0.6351073,-0.771974,39.19922,8.599206,25.434507,11.687057,2.9048088,5.465997
31992,-19.59961,-3.927818,15.623935,3.2727106,0.033750307,4.9858823,-0.3461014,-0.33874986,-0.8749071,39.19922,8.599206,23.419153,9.569024,2.6086085,5.186199
32098,10.523634,-2.3790638,13.237095,1.5137241,2.0835087,-3.637855,-0.15375945,-0.27778244,-0.9482589,39.19922,11.527423,19.667807,8.354664,2.4364514,5.962241
32205,-2.2911277,-5.642276,7.8729844,-5.004208,-3.536299,3.0618093,-0.31643307,-0.3928729,-0.86343557,39.19922,22.666609,21.244076,7.6144786,3.6293254,7.500581
32312,-1.9124634,3.1728828,-19.59961,4.2755985,4.2380304,-2.252871,-0.51283,-0.78333825,-0.35126424,39.19922,22.666609,39.19922,4.987886,2.6516972,6.775121
32418,16.494923,-13.234701,19.59961,5.003444,5.003444,-1.9903517,-0.12131049,-0.5050107,-0.8545455,34.679176,22.666609,39.19922,7.2815857,4.189983,9.06577
32525,0.9643075,0.2673979,19.59961,-3.8884625,-1.8724548,3.0263793,-0.16498828,-0.42540938,-0.88983464,23.398813,21.023935,39.19922,6.425343,3.2202911,9.359384
32632,-4.250251,1.5601203,-14.563914,-5.004208,-2.734233,-1.2029464,-0.3801175,-0.797973,-0.46770695,23.849861,16.407583,39.19922,4.417986,2.1653194,7.388664
32738,6.812366,-1.0935199,19.59961,-0.78694713,-0.0720821,-0.57528234,-0.27120695,-0.23085687,-0.93442595,24.29672,18.753746,39.19922,4.296479,3.2875793,8.609751
32845,3.0035906,-4.685745,-0.22851455,-5.004208,-1.5844318,-0.7644979,-0.35736704,-0.5347287,-0.76573753,24.29672,17.140984,34.163525,3.0476942,2.588783,6.3646784
32952,-3.1130621,-11.812168,19.59961,5.003444,2.325106,2.537687,-0.3895168,-0.4466193,-0.8054861,12.942778,17.140984,34.163525,2.6206648,2.873103,6.6204433
33058,-1.4428719,-6.083751,1.1790633,-5.004208,-0.7699956,-1.5760324,-0.43624705,-0.53230476,-0.725493,14.660824,-14.629717,33.627533,2.3673065,2.5253735,6.4421253
33165,1.9686947,-2.5920248,4.960919,5.003444,1.561677,3.0917418,-0.38927752,-0.59993637,-0.69895595,18.42952,18.425331,36.416367,2.338115,2.1712165,5.370373
33272,3.1842487,1.39023,19.59961,-3.794695,-1.6652187,-1.0548115,-0.30042487,-0.37547472,-0.87679166,27.826134,18.425331,36.416367,4.237717,2.9601898,9.290295
33378,6.9565334,10.4362955,-19.59961,1.5195273,-1.7394388,0.48548514,-0.3418935,-0.8436998,-0.41385922,27.826134,22.248463,39.19922,3.3389018,3.2176101,8.419243
33485,-14.122438,-11.294722,19.59961,5.003444,3.2603407,0.4347833,-0.4063143,-0.42514786,-0.80880034,27.826134,21.731018,39.19922,3.6421852,3.2055218,7.331367
33592,-0.022731815,-4.301697,14.304892,-5.004208,-2.9501736,0.05222898,-0.382489,-0.5451289,-0.7460139,27.826134,21.731018,39.19922,1.3635709,2.5569923,7.0052857
33698,-1.8269199,-5.5615177,1.3944173,5.003444,3.764457,2.6439776,-0.49096212,-0.6262991,-0.60556227,24.842285,21.731018,39.19922,1.2855685,2.3866384,5.51859
33805,19.59961,-5.0602217,19.59961,-1.7386752,-0.71700305,-0.5128214,-0.24767779,-0.32724804,-0.91190153,33.722046,21.731018,39.19922,4.3301363,4.0175266,9.438512
33912,-0.9625129,-4.7234316,-1.7078772,-5.004208,-3.8211148,1.7160733,-0.44796762,-0.6130056,-0.65080655,33.722046,16.23291,39.19922,2.8763669,3.4798682,7.4154906
34018,-2.0512471,6.955337,-19.407585,3.186426,1.1545353,-0.16646078,-0.55807865,-0.79219246,-0.24694006,33.722046,18.25006,39.19922,1.9309448,2.7834547,6.390053
34125,2.586641,-2.8181467,18.748363,-5.004208,-4.2401686,1.8794796,-0.28002417,-0.48584878,-0.8279719,30.445675,20.70928,39.19922,3.6577265,3.4115212,8.844806
34232,-1.9010975,7.028916,-12.463614,3.5456147,3.1713068,-1.0154108,-0.6123162,-0.7459458,-0.26198038,30.445675,20.78286,39.007195,2.5369291,2.891256,6.57155
34338,14.50888,-4.3992043,19.59961,0.5403103,1.4106406,-2.6798658,-0.3319212,-0.58549625,-0.7396097,24.275185,20.78286,39.007195,4.1711073,4.1268497,10.017813
34445,-10.731211,7.910671,-16.840685,-1.4451544,-3.9344304,-2.2594378,-0.59098786,-0.76710504,-0.24956605,30.33082,21.664616,39.007195,3.656663,3.6487124,9.646103
34552,2.4071796,-1.4781661,19.59961,5.003444,2.5644124,-0.52595496,-0.3037815,-0.55165046,-0.77678734,30.33082,15.867404,36.440292,3.1595614,2.6862767,7.9553795
34658,5.8013983,0.114257276,19.59961,-3.4347425,-1.4569136,1.3240504,-0.2559357,-0.5013712,-0.82651305,25.24009,15.867404,36.440292,2.9796617,1.6766713,7.9091654
34765,-4.2167516,-1.2370893,-12.409178,-4.9803843,-2.8806877,0.2835942,-0.5253829,-0.81025034,-0.25974458,25.24009,15.867404,36.440292,2.4119048,1.1297116,6.5916696
34872,-3.5772696,3.572484,-16.561922,0.11438452,0.05589417,0.31230485,-0.54681927,-0.82840836,-0.12136003,25.24009,12.3098755,36.440292,2.7696319,1.48696,8.247862
34978,6.273382,-9.811171,19.59961,5.003444,3.1219795,-3.020576,-0.2888089,-0.33739096,-0.89596695,12.613167,13.383655,36.16153,2.5044713,2.478438,7.6329255
35085,4.85743,-6.7334027,17.397615,-4.967403,-1.9984456,3.5863898,-0.2063822,-0.37971112,-0.9017904,23.81636,13.383655,36.16153,5.17746,3.7918892,10.239439
35192,1.6031911,-7.6498537,6.076573,-5.004208,-3.4454327,3.6070063,-0.45198515,-0.5378277,-0.7116536,23.81636,13.383655,36.16153,3.2667952,3.040119,6.7513204
35298,-6.694519,3.696911,-12.862618,1.7884607,0.8969029,-0.25488353,-0.7159771,-0.6788572,0.16287962,26.294128,13.508081,36.16153,2.7137682,2.423222,6.178227
35405,-5.568098,3.2093732,-3.9547374,5.003444,2.4759896,-0.9289733,-0.6875172,-0.7070167,-0.16567273,26.294128,13.508081,33.619156,3.2705781,2.7441595,6.573701
35512,19.59961,-15.9128685,19.59961,2.830444,3.5640934,-3.6903896,-0.04460818,-0.36175826,-0.9312041,26.294128,19.60978,33.619156,4.20496,4.61551,7.8641424
35618,-5.9180484,1.8071792,0.6586244,-5.004208,-4.002389,2.6804767,-0.476249,-0.61579835,-0.6276777,26.294128,19.60978,33.619156,3.7289824,3.2181995,7.0497165
35725,-3.8925242,4.8329034,-19.59961,0.39492437,1.1974486,-1.232268,-0.5905222,-0.79478204,-0.14001788,26.294128,20.745771,39.19922,2.626642,2.41421,6.1897907
35832,19.185652,-11.898909,19.59961,4.7455063,3.293938,-1.3712398,-0.3015688,-0.55081654,-0.77823997,26.294128,20.745771,39.19922,3.7131348,3.155087,6.089469
35938,-7.7210402,8.736196,8.710472,-0.59880066,-0.97234476,2.5393667,-0.3080044,-0.4662489,-0.8293041,27.32065,24.649063,39.19922,5.2983794,4.271638,8.353916
36045,-7.1922264,7.6701927,4.523631,-0.9899071,-0.70600754,-1.7402024,-0.42780825,-0.48357233,-0.7636347,33.643085,30.15076,39.19922,6.641382,6.4602923,7.5177546
36152,19.59961,-19.59961,19.59961,4.423275,3.8814378,-3.9683332,-0.15825623,-0.42784736,-0.8898885,34.057045,37.851463,19.317854,6.31831,7.343854,7.0707936
36258,-10.763514,16.560724,10.3346,-0.3005457,2.6810877,0.84360486,-0.39329517,-0.42856693,-0.81341827,34.057045,37.851463,19.317854,7.12341,7.768527,6.5306726
36365,-7.9633136,5.3635116,4.284947,-1.5515977,-1.4914274,-1.1527027,-0.3617507,-0.47119525,-0.8044324,33.339794,36.16033,19.317854,6.01644,6.5768695,5.344047
36472,19.59961,-11.27498,15.189637,1.0143417,0.63346726,2.2201898,-0.13894606,-0.43413496,-0.8900679,33.339794,36.16033,19.532013,6.7741323,7.3383665,5.8728104
36578,-9.050852,18.265013,15.557534,-0.6429357,1.8377881,-0.11988231,-0.3922825,-0.33835006,-0.8553559,33.987053,36.966118,15.489937,6.7797227,7.682862,6.9230256
36685,-3.8590245,0.4875376,0.0053838505,-2.4301748,-3.9565742,-1.5845845,-0.37490284,-0.5083419,-0.77526534,33.987053,36.966118,15.552151,4.66647,5.2666306,2.3510535
36792,12.476775,-10.342976,10.97468,0.5618433,-1.9057469,4.831944,-0.17809981,-0.47008726,-0.8644642,33.987053,36.966118,16.642677,5.2983,5.7805376,3.5620067
36898,-7.508677,16.00559,13.252647,-1.2739595,2.0349448,0.08353582,-0.41413727,-0.39557722,-0.8197615,35.201412,37.328033,16.642677,5.7419443,6.5762525,5.0586367
37005,-3.9900315,-5.8307104,-1.6289139,-1.2379184,-5.004208,-2.938262,-0.44297573,-0.5427249,-0.7135981,35.201412,37.328033,18.276976,6.7546463,7.633461,5.5968423
37112,-6.028118,-0.078963146,9.875178,0.29993483,-5.004208,4.0077343,-0.3060545,-0.45121637,-0.83829254,35.212776,37.328033,18.276976,7.2670064,7.121673,6.501616
37218,-4.4488554,9.696914,7.295118,-1.1258246,1.4665347,-0.75716746,-0.46491304,-0.44014674,-0.76819706,36.507893,35.279778,16.103096,7.7139244,8.546046,6.6254973
37325,6.9565334,-12.599407,8.931808,3.9406917,3.6106718,-4.6868634,-0.40161255,-0.5316281,-0.74570704,36.507893,34.77908,14.120046,5.833619,6.7936907,5.25163
37432,-13.15514,5.7553363,9.735797,1.5259414,-1.035722,2.3361015,-0.41542253,-0.2919051,-0.86151934,36.507893,32.74159,8.659625,6.0485516,5.99996,5.152586
37538,2.2145574,-3.1788647,0.5485546,-3.3336444,-4.208556,-1.1598804,-0.3102312,-0.2948327,-0.90378666,33.785458,32.74159,18.376278,5.022256,5.2477813,6.110851
37645,19.59961,-4.744369,19.59961,2.4497223,4.827515,-3.3089044,-0.28682625,-0.17489682,-0.9418821,33.785458,25.862822,29.204998,6.190448,4.630891,7.4600434
37752,-2.5950162,3.0233314,3.9104702,-1.8089248,-0.8003862,1.4637859,-0.38234234,-0.26020843,-0.8866261,33.785458,21.503696,29.204998,4.4010687,3.2097929,5.803181
37858,-3.7046874,0.5204389,3.6430724,-2.6769643,-1.1021537,-0.1702787,-0.3780875,-0.37289196,-0.84734964,30.398418,15.596416,29.204998,3.3218298,2.6533775,5.0481067
37965,7.4919276,-5.7194443,11.5519495,3.2181907,0.8918632,1.2979358,-0.32041705,-0.3736442,-0.8704728,30.398418,15.873386,23.382063,3.2331183,3.0856502,4.4810324
38072,-8.169695,9.74118,19.59961,0.35796702,1.0334313,0.49418998,-0.27795133,-0.12875244,-0.9519274,16.188044,19.301702,23.382063,4.65948,4.448004,8.400954
38178,-3.2883363,-11.142776,-5.250451,-2.5302038,-3.4396293,-1.0658071,-0.45694634,-0.4158024,-0.7863259,16.188044,20.883957,24.85006,3.3616502,4.6399493,8.121331
38285,0.48215374,-3.0041888,12.7908325,1.7936531,-1.8022052,3.2586608,-0.3136361,-0.3559933,-0.8802847,26.891737,23.032711,24.85006,4.4474998,5.313243,7.174754
38392,-1.7294124,12.772887,19.59961,-0.68752885,2.817005,-0.22388211,-0.29250386,-0.21146569,-0.9325898,31.104301,26.064419,24.85006,4.079667,5.480449,8.1308565
38498,-2.3539393,-4.1874394,-2.8857439,-2.1335995,-4.2711697,-2.1137464,-0.39894325,-0.51601547,-0.7580055,31.104301,26.064419,24.85006,3.0942452,4.178998,6.1411343
38605,10.522437,-9.924232,12.059825,3.6508362,2.0868683,-1.4807374,-0.30179662,-0.50642085,-0.8077479,31.104301,26.064419,22.536201,3.1151,4.1579795,5.066859
38712,17.396418,-1.1294123,19.59961,-1.4738652,1.0626001,-0.926988,-0.12612289,-0.11808427,-0.9849615,22.853848,23.742184,22.536201,4.347151,4.0674467,8.624293
38818,5.8803616,-8.1679,3.9188452,-5.004208,-3.206279,2.876717,-0.30768076,-0.4415893,-0.84281164,22.853848,21.472591,22.536201,3.9877527,3.723284,6.742437
38925,-4.287938,-0.40319058,-9.97807,-2.3240368,-2.319608,0.9254609,-0.54734004,-0.6333329,-0.5470908,22.853848,21.472591,29.577679,4.7531567,4.269805,8.391989
39032,-12.865608,3.702893,4.671986,4.699692,3.6511416,-1.9595029,-0.58780384,-0.52850884,-0.61250716,30.262026,18.671196,29.577679,5.4200506,3.3493607,5.900199
39138,2.1972094,-0.8249256,12.30868,-4.189008,-3.1439705,4.174195,-0.24420366,-0.5423792,-0.80385906,32.465218,18.799809,29.577679,5.9047017,4.126415,7.9069247
39245,-6.949355,3.1692934,-4.85743,-2.6166413,-1.6067283,1.1381947,-0.4380186,-0.67912847,-0.5890027,32.465218,18.799809,29.577679,4.56269,2.924898,5.2502127
39352,-3.2548368,6.647859,-3.4049864,5.003444,1.2267702,-0.04841107,-0.5272396,-0.6427409,-0.55579,32.465218,21.275782,30.855446,3.3691874,2.6551425,4.1659765
39458,7.3334026,-1.9154544,19.59961,-4.804761,-5.004208,0.5681047,-0.27690467,-0.23626359,-0.9313986,26.548965,24.81656,30.855446,4.072353,3.2850382,6.8115
39565,-1.864607,-4.2574296,-2.2911277,-4.7934594,-1.4181237,0.32803464,-0.5670668,-0.5502357,-0.61292404,21.700508,24.81656,30.855446,4.5265703,4.1218085,8.085738
39672,-0.50488555,0.6843473,-13.968102,-1.1855366,-0.6062837,0.077579886,-0.61672544,-0.73970556,-0.26923108,21.700508,24.81656,33.56771,2.7664309,2.5415199,6.248253
39778,-16.564913,-0.5012963,19.59961,1.9033034,1.2666291,-0.20616701,-0.489348,-0.11411047,-0.8645909,31.316067,24.81656,33.56771,3.78429,2.5389183,7.367976
39885,-7.8520474,-2.775076,16.84547,-3.5089626,-0.10613784,-4.1457896,-0.471536,-0.25300106,-0.84477466,31.316067,18.853048,33.56771,3.4963932,1.9275585,7.281309
39992,19.59961,-6.0323057,-1.6019948,-0.6724099,3.5051448,-5.004208,-0.07020257,-0.7457429,-0.66252476,36.16452,10.196415,33.56771,4.546866,2.2628686,4.928646
40098,1.3657036,-19.59961,12.140584,4.3832636,0.2567161,5.003444,-0.35513884,-0.45095816,-0.81884867,36.16452,-19.098312,21.201605,4.76038,4.1305,4.3294597
40205,-19.08635,-5.228915,18.332012,-1.7623461,-1.0462594,-0.85902923,-0.44953445,-0.12814744,-0.8840232,39.19922,-17.487944,21.201605,8.628976,5.2107396,8.122622
40312,12.916456,-2.1308086,2.3371894,0.02947425,0.9747882,-5.004208,-0.31109744,-0.57485485,-0.7568093,39.19922,19.621742,21.201605,8.202631,3.7430742,6.077701
40418,-14.825929,-10.4877405,19.59961,2.0599902,0.40851614,5.003444,-0.39378473,-0.3140207,-0.8639008,39.19922,19.621742,18.94936,9.826626,4.108238,7.1245885
40525,-8.341978,-2.2773688,1.5170496,-3.3840408,-0.59345555,-5.004208,-0.4269784,-0.51547605,-0.7429494,39.19922,12.54138,18.94936,10.444193,3.0302472,7.1712046
40632,19.59961,-4.843671,-0.48155555,1.1349876,1.1736249,-5.004208,-0.019951254,-0.72648674,-0.68689084,39.19922,12.54138,20.081165,8.791541,2.6638913,4.3821645
40738,-19.59961,3.5108688,19.59961,1.6444492,0.9944886,5.003139,-0.42424873,-0.31611943,-0.8485762,39.19922,14.371293,20.081165,8.787612,3.4423397,6.3389754
40845,8.303094,-4.067798,-3.8398821,-1.6455182,1.3455834,-5.004208,-0.22997892,-0.68971175,-0.68659115,39.19922,14.371293,23.439491,8.218635,2.5898507,5.7072945
40952,19.59961,-9.387043,16.097713,1.9982929,-2.1305451,5.003444,-0.050747074,-0.65143335,-0.7570068,39.19922,14.371293,23.439491,8.067118,2.9875343,5.111388
41058,-19.59961,1.4051851,14.301901,-2.7421741,-1.2693781,-2.0346394,-0.49137866,-0.3520968,-0.7966021,39.19922,15.287145,23.439491,8.013321,2.761434,6.427959
41165,19.59961,0.74596244,-8.8085785,4.7119093,2.2979224,-3.707952,-0.21539098,-0.80295324,-0.55576324,39.19922,13.806585,28.408188,7.743364,1.8228028,5.144042
41272,-0.5246263,-13.827523,19.59961,2.9991956,-0.20143281,5.003444,-0.25946692,-0.43827844,-0.8605748,39.19922,15.857833,28.408188,9.755787,4.101009,9.063964
41378,-11.038091,-2.1858435,-2.6572294,-5.004208,-3.588528,-3.7513235,-0.53763676,-0.50500876,-0.6752132,39.19922,15.857833,28.408188,10.877203,3.0065877,9.3470545
41485,7.5014987,-1.4757732,-9.95175,2.369699,-0.27046058,-4.925406,-0.3256196,-0.88717866,-0.32693416,39.19922,15.232708,29.55136,7.276472,1.95153,6.6034074
41592,-2.8618157,-15.92902,19.59961,1.9990565,-3.063642,5.003444,-0.4281227,-0.28729928,-0.8568373,39.19922,16.674982,29.55136,5.828041,3.692319,7.097982
41698,-19.59961,-5.5543394,11.614162,-5.004208,-1.5369369,-0.0076358155,-0.6405851,-0.19050053,-0.7438819,39.19922,-15.404992,29.55136,9.747963,4.593695,10.219359
41805,6.798009,-1.1012965,-8.199007,2.1464276,-4.4666467,-5.004208,-0.36871877,-0.91591173,-0.15859434,39.19922,-15.404992,29.55136,6.7962756,3.1674237,7.89034
41912,15.853047,-16.393826,19.59961,4.268879,2.7765353,5.003444,-0.42083445,-0.4649649,-0.7789134,39.19922,-15.292529,29.55136,7.622672,4.113815,8.654126
42018,-19.305292,-5.319843,8.74457,-5.004208,-0.49296826,-2.7192667,-0.67438346,-0.27137783,-0.686703,39.19563,-15.292529,28.987848,9.64007,3.694814,9.20287
42125,3.196811,-2.0225332,-8.507083,-3.624111,-5.004208,-5.004208,-0.5089287,-0.83782774,-0.19757584,39.19563,-15.292529,28.987848,6.103723,2.4191418,6.3724303
42232,9.296714,0.6095715,-4.4811583,5.003444,3.3577735,-1.9814941,-0.17742991,-0.96333766,-0.20124422,39.19563,17.514862,28.987848,7.202208,2.5922027,7.290796
42338,13.489538,-6.8141603,17.814564,2.6421447,-3.057686,5.003444,-0.1744899,-0.38996774,-0.9041451,39.19922,17.514862,28.106693,7.6302395,3.1842353,8.115894
42445,-17.421543,-5.550152,8.821739,-4.789183,-5.004208,-0.81077087,-0.67534643,-0.1404238,-0.72400856,39.19922,13.829318,28.106693,8.353623,3.5994792,8.887649
42552,-3.2368908,-4.342375,-7.296912,-3.921144,-5.004208,-5.004208,-0.7365746,-0.65695196,-0.1608478,39.19922,13.829318,28.106693,5.3358626,2.593925,6.06228
42658,4.2137604,-2.207977,-6.5294147,5.003444,1.7670805,-3.9034288,-0.33546767,-0.937425,-0.093251355,39.19922,13.829318,30.385855,5.757239,2.8773549,7.793846
42765,2.8265216,-4.9010987,19.59961,2.8243353,-2.6691756,5.003444,-0.23820522,-0.47084284,-0.84945,39.19922,13.334601,30.385855,5.6969566,3.3306806,8.59623
42872,-19.59961,0.6299105,14.246865,-3.9228237,-3.038291,0.34208453,-0.51158214,-0.34968576,-0.78485894,39.19922,13.338191,30.385855,6.5541115,2.0903647,7.758401
42978,5.629115,2.7194428,-12.483953,2.404671,0.39507708,-2.0540345,-0.43649092,-0.8752241,-0.20846687,39.19922,13.861023,32.083565,4.5530934,1.6077464,6.3226585
43085,7.336394,0.9361918,19.203,5.003444,1.7939584,1.1815661,-0.22271083,-0.48226956,-0.8472402,39.19922,13.861023,32.083565,3.8920758,1.3242651,6.2701902
43192,-1.8933209,7.3926253,19.59961,0.23976462,-2.78692,2.0285308,-0.30813268,-0.21096015,-0.9276584,39.19922,18.534204,32.083565,4.0981574,2.4348338,10.190112
43298,16.818552,-19.59961,19.59961,-5.004208,-2.6797132,2.097253,-0.5133071,-0.3925326,-0.76317364,36.41816,26.992235,32.083565,6.073014,4.518987,11.99395
43405,0.60000026,-19.59961,-19.59961,-5.004208,-5.004208,1.75975,-0.7131589,-0.39635777,0.57819104,21.49293,26.992235,39.19922,5.6637692,6.6313143,10.316252
43512,3.8853457,-12.100503,-19.59961,0.86269444,-1.8813123,0.13347405,-0.51080996,-0.03097873,0.8591353,21.49293,26.992235,39.19922,3.786796,5.188839,8.149712
43618,-4.445864,-11.688938,-1.8000008,5.003444,2.7143798,0.92347556,-0.55381244,-0.33080697,0.76410633,24.045473,26.992235,39.19922,4.2313824,6.357733,8.329712
43725,-7.435098,-5.7427745,7.5296144,5.003444,1.1817187,-2.0506747,-0.6590164,-0.70563805,0.26033133,27.034708,26.992235,39.19922,3.2823393,4.388917,5.7507887
43832,19.59961,-17.617754,19.59961,5.003444,4.526817,0.1441642,-0.19197476,-0.40032426,-0.8960392,27.034708,-17.211573,39.19922,5.198709,5.218388,7.3539443
43938,1.666601,-16.701902,19.59961,-5.004208,-2.5341744,3.9035816,-0.27602264,-0.294515,-0.91491663,27.034708,-17.211573,39.19922,5.2562194,6.2879076,9.5082655
44045,6.606583,-19.59961,7.7688966,-5.004208,-5.004208,1.6357445,-0.450262,-0.64295745,-0.6195723,27.034708,-17.211573,39.19922,5.9168777,8.247869,10.285154
44152,5.726024,-6.8165536,-19.59961,2.3138046,-0.35445455,0.9640981,-0.34363326,-0.61288637,0.71153814,17.933008,-17.211573,39.19922,4.9756503,8.645213,11.271035
44258,0.94875413,-8.421539,-10.345368,5.003444,2.2122486,2.0651827,-0.44211867,-0.7223585,0.5317229,18.650856,-16.033108,39.19922,3.0802658,6.029282,7.797158
44365,19.59961,3.8482568,19.59961,-2.6151142,-5.004208,0.40286562,-0.19515936,-0.40954497,-0.891171,22.132412,23.447866,39.19922,5.4556627,4.5081177,9.44987
44472,2.8462625,-7.821539,16.179668,-5.004208,-2.6513078,2.0444133,-0.5509586,-0.662886,-0.5069781,22.132412,23.447866,39.19922,4.029039,3.6454535,8.463865
44578,-3.3176484,-16.622938,-19.59961,-5.004208,-4.0480514,2.47095,-0.67388225,-0.48264593,0.5594065,22.917257,23.447866,39.19922,3.2287817,5.0255423,7.2078357
44685,-6.177071,-3.150151,-19.59961,2.9103148,-1.6013832,-0.93523467,-0.44275138,-0.23171303,0.8661872,25.77668,23.447866,39.19922,3.8464887,5.3405576,9.167796
44792,17.939589,-5.666802,19.59961,3.1677945,5.003444,-2.1583395,-0.57189846,-0.81144047,0.12040153,25.77668,23.447866,39.19922,4.4038863,4.1148634,8.149054
44898,2.8037899,3.095714,12.961322,-3.5978436,-5.004208,4.114941,-0.5981647,-0.7830571,0.17035456,25.77668,23.447866,39.19922,4.684265,4.4244347,9.445186
45005,3.735196,-1.835893,-8.770292,4.020257,2.48332,-1.9578232,-0.44761288,-0.68317944,0.5769823,32.71467,24.15674,39.19922,4.6615868,3.2939632,8.504102
45112,13.898111,-4.392026,7.1587267,5.003444,3.7635407,0.6994407,-0.46045116,-0.8207511,0.3381603,32.71467,24.15674,39.19922,4.1867633,2.4155805,5.8183336
45218,-7.710273,-2.9282165,0.8757731,5.003444,4.6412015,-4.5720205,-0.6446805,-0.7036749,-0.29871178,36.52584,21.180069,39.19922,4.39826,1.9614003,3.9425976
45325,19.59961,-2.1248264,15.602998,4.635398,-1.3990341,4.550488,-0.16058847,-0.5599439,-0.81281865,38.18586,14.910276,39.19922,4.9230967,2.0105116,4.665133
45432,-12.031113,-9.330214,19.59961,2.7392724,-0.2930626,5.003444,-0.41801775,-0.09144376,-0.90382475,38.18586,14.910276,39.19922,6.723756,3.7960956,8.585054
45538,-13.562519,-6.634101,6.4414787,-5.004208,-3.8244746,-1.4330899,-0.6847529,-0.16753341,-0.7092574,38.18586,14.006986,25.66661,7.505461,3.849742,9.715102
45645,-5.748158,-3.6526437,-10.850254,-4.37349,-1.7432567,-4.9075384,-0.7234834,-0.6686692,-0.17161956,38.18586,14.006986,30.449863,5.0780926,2.6751094,6.914087
45752,9.602397,-4.913063,-2.8977082,5.003444,2.7884471,-3.4377968,-0.12461493,-0.9629019,-0.23935546,33.16213,-8.313264,30.449863,4.0976157,2.2849503,5.3371825
45858,19.59961,-11.5417795,19.59961,5.003444,-1.0581713,4.9814534,0.12283862,-0.6277956,-0.76862437,33.16213,-10.52483,30.449863,6.0575767,3.4391284,7.2971435
45965,-15.387644,-1.1395818,19.59961,-4.154495,-3.356399,2.0387628,-0.40791935,-0.18188384,-0.8947179,36.053856,-10.52483,30.449863,8.164996,3.9039762,10.258169
46072,-14.18226,-4.680959,11.991631,-5.004208,-2.6184738,-1.9494237,-0.53056914,-0.3729844,-0.7611695,36.053856,-10.52483,30.449863,6.317224,2.8104815,7.3540645
46178,13.679169,1.8077774,-13.548759,0.75900006,2.6305385,3.341891,-0.43265775,-0.87814903,-0.20411147,36.053856,13.349557,33.14837,5.639496,1.8901814,6.3364954
46285,-17.640486,0.06460621,7.2053866,5.003444,-2.333658,4.5338416,-0.7497242,-0.44371983,-0.49094433,37.240097,13.349557,33.14837,7.4035444,1.8901814,7.057034
46392,-8.395817,-1.2203395,8.806784,1.1837041,2.2292,-5.004208,-0.53491676,-0.50695,-0.67591846,39.19922,13.349557,33.14837,7.241669,1.4458936,6.3662252
46498,19.59961,-3.5012975,13.4153595,-1.4993688,0.26435193,-5.004208,-0.0029504886,-0.6838177,-0.729647,39.19922,13.183853,33.14837,7.021194,1.5563102,6.4724183
46605,18.61556,-1.6319051,9.503693,-3.9565742,-3.5327866,3.270267,-0.01958899,-0.7973633,-0.6031816,39.19922,6.4887366,33.14837,6.0742726,1.0969766,4.8338203
46712,-1.4955142,-8.302496,-19.59961,-5.004208,-5.004208,5.003444,-0.34025,-0.08881391,0.9361314,39.19922,10.110273,33.01497,4.0057,1.9682802,5.2292624
46818,5.428716,-7.7712893,-7.5798635,-0.66278875,-1.6688839,3.1554244,0.29598248,0.24212715,0.9239961,39.19922,-9.326624,33.01497,4.0704756,2.9941294,5.7685494
46925,-11.103893,-1.7617157,-7.329814,5.003444,5.003444,0.056505032,-0.13074753,-0.06386233,0.9893567,30.703503,-8.915058,33.01497,5.367206,3.5847976,7.0152698
47032,13.46202,-2.9084756,8.29472,1.5468636,5.003444,-3.540575,-0.51578474,-0.595935,-0.6154897,25.113869,-8.785248,29.284557,5.505888,3.2291443,6.1812663
47138,8.350951,3.3296127,6.4271216,0.75075334,4.280791,-0.2003638,-0.051347367,-0.6479148,-0.75998014,25.113869,13.876576,27.477379,5.457552,2.3664,4.9740844
47245,11.005787,4.625326,5.385047,3.2786663,1.2127202,3.5396585,0.15207484,-0.5776818,-0.8019707,24.565914,8.770293,17.014763,6.2751064,2.4865723,4.428459
47352,13.510474,-6.703492,12.0436735,5.003444,-2.4022274,5.003444,0.096871465,-0.20641667,-0.9736571,21.917057,11.328818,13.78505,5.819996,2.22855,4.298683
47458,-8.108678,-9.225527,4.3339996,5.003444,-5.004208,1.9616411,-0.3054806,0.5114512,-0.80318075,23.784657,13.850853,7.709674,4.9193163,2.8027337,3.637101
47565,-2.9006991,-10.450054,3.138785,0.66752297,-2.4953847,2.443919,-0.4305986,0.7520299,-0.49903494,23.784657,15.07538,8.904888,5.2093863,3.8477392,3.9509792
47672,0.91286176,-11.054242,-1.5996019,4.721683,2.9898798,2.0917552,-0.127715,0.9885401,0.08048146,23.784657,15.679568,13.643275,3.3366787,4.430479,2.5851638
47778,4.1264224,-13.062418,-5.617749,4.9221992,3.3771684,0.34773505,-0.106851555,0.9008774,0.4207168,23.784657,17.687744,17.661423,2.4607112,5.2632933,2.4289052
47885,-5.98086,-19.59961,6.5814586,5.003444,-1.4126259,-5.004208,-0.24871719,0.21273066,0.94492614,15.433107,-10.548758,16.025928,3.259582,8.181731,2.3399718
47992,-3.0915267,-5.139185,-2.161915,2.4054344,-4.072791,-5.004208,-0.010577648,-0.2285184,0.97348213,13.914263,-14.460424,12.199207,2.9822342,7.5441823,2.080458
48098,7.707281,0.16510475,-0.73160547,0.5096143,-5.004208,-2.590374,0.5450463,-0.17282015,0.82040095,16.46262,19.764713,12.199207,2.6485074,4.9619193,1.5970885
48205,9.449256,0.38943186,-3.165106,2.0433443,-2.111761,1.2925909,0.871759,-0.17700735,0.456842,18.204594,19.98904,12.421143,2.8814678,3.0329642,1.6251447
48312,10.847861,1.792224,-1.9938194,3.6323574,2.7236953,2.6554313,0.76150656,-0.40976828,0.5021929,19.603199,21.391834,12.421143,3.966254,3.2121866,1.8245267
48418,0.69930243,12.700504,4.598407,5.003444,5.003444,2.2669208,0.24971704,-0.8321318,0.4951748,18.525232,27.349365,10.43809,3.1654358,3.9915402,1.6369295
48525,-7.213164,11.006386,11.244471,1.7676913,5.003444,2.6923885,-0.34892425,-0.9370047,-0.016554806,18.061026,19.682163,17.084154,2.7141132,4.0533657,2.461903
48632,5.3952165,5.3216376,11.382657,2.1439843,5.003444,-0.7041749,-0.30004528,-0.80497944,-0.5118407,18.061026,19.682163,17.22234,3.253635,4.5855293,3.6001687
48738,9.817751,6.571289,5.27737,1.952478,2.6157248,4.328133,-0.13051352,-0.7066632,-0.69540876,18.061026,12.419348,18.753149,3.7031887,3.904957,3.9791849
48845,-1.4877374,2.594418,7.532007,0.43585235,-3.9719985,5.003444,-0.42877582,-0.5703016,-0.70064783,18.061026,12.311072,16.078571,2.370687,2.602416,3.1407115
48952,-0.7692925,-7.4775705,5.4580283,2.3919957,-4.7142,5.003444,-0.79868245,0.52243215,-0.29861516,17.030914,20.178074,8.315059,1.7546675,3.2099607,3.419961
49058,2.2420747,-13.574483,-2.196013,3.1483994,-1.665066,5.003444,0.11282002,0.9572018,0.26652664,15.403197,20.145771,15.109478,1.7601907,5.2551107,2.6479092
49165,8.667401,-7.159325,-3.8644083,0.38683042,-1.2487613,5.002834,0.6151515,0.7043434,0.3542442,15.403197,20.145771,11.396416,2.3973513,4.2387977,2.0579898
49272,10.867003,0.93978107,-4.852046,-2.770121,1.8912388,5.003444,0.88783914,-0.080879375,0.4529903,16.45245,14.514264,13.37528,3.625929,3.7528625,2.4080906
49378,12.71486,7.1700926,-4.484748,-4.204433,1.3927728,3.1676419,0.06995441,-0.63530636,0.76908535,11.433504,24.327827,-5.8013983,4.858725,4.04966,2.1668289
49485,9.172885,6.2518473,-8.477771,-4.7319145,2.258216,1.0676397,-0.27600008,-0.09634701,0.9563165,9.282955,21.960728,-7.475776,4.3431997,3.9481976,2.9070332
49592,-2.9347968,-3.5647073,-5.48076,-4.9502993,-0.42103887,-0.66355234,-0.46420172,0.619747,0.63279575,15.84886,14.31805,-7.475776,3.133956,3.2270205,3.039323
49698,-9.482158,-5.900102,-5.0404806,-4.0527854,1.5117388,-3.957185,-0.73362434,0.67768484,0.050383836,22.197018,16.971094,-5.1003017,3.1500769,3.216899,2.7862384
49805,-9.179465,-2.0817556,1.5206387,-2.641534,-1.5992452,-3.00225,-0.8600164,0.42943949,-0.2755966,18.655043,14.846268,9.998409,3.5780628,2.744752,1.8926125
49912,-10.677971,-1.4811572,1.1802597,-3.133586,-3.382819,0.548557,-0.93838334,0.2597832,-0.22792406,14.425131,12.535399,7.001399,5.5385623,3.128381,2.052453
50018,-10.795817,-3.5754752,-2.544767,-4.960684,-4.1034875,-2.2670736,-0.9504925,0.12977137,0.28235322,13.603793,-8.376674,7.3142605,6.6126103,2.5845864,1.7337852
50125,-8.621938,-4.088137,-3.1974092,-5.004208,-3.333797,-1.8083138,-0.7592283,0.2999425,0.5775872,-8.081161,-8.376674,7.976474,5.988604,2.2825966,1.9302814
50232,-6.5270214,-4.482953,3.0873394,-3.35365,1.7545576,-5.004208,-0.5761049,0.7776502,0.2517209,-5.519644,-6.4761744,8.790033,5.852286,3.214819,2.5464606
50338,-7.3639116,2.0177476,8.441878,-5.004208,1.4978416,-2.1444423,-0.787599,0.6092874,-0.09195972,-5.8378887,13.009777,16.12942,6.245052,4.1578054,3.5481963
50445,-9.808778,1.8885351,6.865606,-0.14355333,-1.8318322,-1.997682,-0.9497038,0.2813161,-0.13756436,-5.8378887,15.848861,15.94577,5.4824257,3.16922,3.4310918
50552,-16.641483,-8.993423,0.31046873,4.651128,-5.004208,3.1172452,-0.86639214,0.22406414,0.4462734,-10.319048,15.848861,10.116256,6.398761,3.0301785,2.5993612
50659,-2.4705894,-1.6600207,-7.902895,1.8018997,-5.004208,-5.004208,-0.7364497,0.113186,0.6669563,-14.170894,15.848861,18.32962,4.548106,2.1941872,2.5812683
50765,3.0526433,0.9349954,-6.3164535,-1.3350459,-5.004208,1.1394165,0.46385637,-0.023862423,0.885589,19.694126,13.850255,16.344772,3.316206,1.5116589,2.606233
50872,4.794618,-0.5288138,-10.921441,0.8677341,3.3034065,-0.10720685,0.58842516,-0.01701782,0.80837256,24.470798,10.687542,15.173487,3.267395,1.0553862,3.6644228
50978,3.3391838,2.106282,-14.371891,2.588389,5.003444,-2.4648414,0.41270393,-0.06617099,0.90845853,24.470798,11.099706,16.917255,3.6013136,1.2660145,5.1016116
51085,4.5900316,7.3088765,3.9409788,0.035124753,5.003444,-5.004208,-0.5792562,-0.8151364,-0.0038636918,15.525829,10.810174,18.31287,3.2918155,1.9235972,4.0253344
51192,7.3334026,6.7543397,-0.10348957,0.9283624,4.926323,1.2490667,-0.066988476,-0.98611027,-0.15198389,15.8692,8.9007015,18.31287,3.6233253,2.338127,2.4570153
51298,2.6004,12.799208,-2.603391,1.684919,3.59708,3.6149478,-0.26102737,-0.9060709,-0.3330168,15.8692,14.391033,18.31287,2.4689226,3.268883,1.7808852
51405,-3.9236307,4.0103703,1.2574283,4.7027464,5.003444,5.003444,-0.46060014,-0.2984616,-0.83592355,15.8692,10.692925,21.54976,2.3600578,3.130032,1.8218874
51512,-0.27996022,-4.505685,9.260821,5.003444,0.870483,2.5318837,-0.10323201,0.43521014,-0.894391,14.354543,17.304893,14.616556,1.6855143,2.4004083,2.9617474
51618,1.8436698,-9.337991,14.165509,2.6461155,1.3263412,-0.9066767,0.03585445,0.82498866,-0.5640108,8.105686,22.1372,16.7689,2.105754,4.1675677,5.570881
51725,-1.4057832,-5.928218,8.216952,-4.912273,0.80832744,2.4055874,-0.07448264,0.64945567,-0.75674284,8.093722,13.348361,12.908081,1.6882381,4.4779096,5.9386215
51832,-1.2981062,3.626921,6.6520467,3.161075,-2.6499333,-0.21135937,-0.06603423,0.52094007,-0.8510352,6.8117676,13.348361,12.908081,1.1427535,3.0494378,4.2283773
51938,-3.9116666,-6.5419765,13.356735,0.45875978,0.64385194,1.7116444,-0.022174278,0.65779036,-0.7528746,11.976675,14.399408,33.765118,1.622131,2.7875452,5.0486765
52045,-2.696711,-1.2197412,10.113863,-5.004208,-0.1844813,0.15073101,0.059497137,0.44708446,-0.89251083,10.932208,14.399408,33.765118,1.4553605,2.2894566,5.1731033
52152,0.50069815,-2.711666,9.1465645,-2.727513,0.5519167,1.1899655,0.07303917,0.27809936,-0.95777136,11.512467,11.603394,32.956345,1.1755735,1.9458697,5.168114
52258,0.7154539,0.99062854,9.635298,0.1366811,0.30589077,3.7643044,0.115027785,0.173826,-0.97803533,11.512467,11.603394,32.956345,1.3565307,2.1545837,7.0515647
52365,-1.5176476,2.8289144,9.758529,0.1414153,-0.06566802,2.0641136,0.19334623,0.026125956,-0.9807827,5.303093,7.3483577,5.2337008,1.2263213,1.7967982,6.222425
52472,1.7341981,1.6408781,9.283553,0.120493166,-0.06856962,-0.13133603,0.17104772,-0.037440564,-0.98455113,5.303093,6.9278197,5.2337008,0.9705885,1.6637821,5.609727
52578,-4.2670007,0.5413761,9.382257,0.11957687,-0.016187929,0.66767573,0.18880847,-0.06397674,-0.9799277,7.194619,6.9278197,5.2337008,1.520854,1.1854956,5.8375144
52685,-0.013160524,0.7262216,9.653843,-0.032223143,-0.010537425,0.024281893,0.1822622,-0.088891245,-0.9792236,7.194619,6.42772,5.2337008,0.46517545,0.96179,6.0119095
52792,0.04785645,0.683749,9.692127,-0.018020526,-0.009468411,0.027794369,0.18932463,-0.08327149,-0.9783772,6.3224354,6.42772,5.2337008,0.13955264,0.6454489,4.5763583
52898,-0.02452643,0.6125626,9.698709,0.012217305,-0.008552114,0.02947425,0.18297802,-0.08259593,-0.97964126,6.3224354,6.42772,5.2337008,0.04186579,0.48639202,4.2915425
53005,-0.014356935,0.6622136,9.676575,-0.018325957,-0.0076358155,0.025045475,0.17519513,-0.08223139,-0.9810936,5.4711885,6.42772,5.2337008,0.016489947,0.4057216,4.1222086
53112,0.038285162,0.78424764,9.680163,-0.01572978,-0.0076358155,0.027794369,0.17466776,-0.068919115,-0.9822125,5.4711885,6.42772,5.2337008,0.016489947,0.55975956,6.0597367
53218,0.15254244,0.6484549,9.672985,-0.013439035,-0.0071776663,0.02565634,0.18199213,-0.07135922,-0.9807072,5.4711885,6.42772,5.2337008,0.020201229,0.45938522,5.570499
53325,0.051445685,0.72203416,9.673584,-0.021227568,-0.005955936,0.025961772,0.19471253,-0.07327786,-0.9781193,5.4711885,6.42772,5.2337008,0,0.34783453,4.3096576
53432,0.038285162,0.6448657,9.622137,-0.020158552,0.00290161,0.02855795,0.16233267,-0.07232121,-0.98408216,5.4711885,6.42772,5.2337008,0,0.31891415,4.1285667
53538,0.028115666,0.7076773,9.617352,-0.0125227375,-0.008399397,0.027794369,0.18177415,-0.08384739,-0.97975904,5.4711885,6.42772,5.2337008,0,0.38968188,5.090302
53645,0.062213387,0.7022934,9.658628,-0.02443461,-0.0053450707,0.022449298,0.18087924,-0.08743339,-0.9796112,5.4711885,6.42772,5.2337008,0,0.44252306,5.9354987
53752,0.034695927,0.66460645,9.687342,-0.015118915,-0.0016798794,0.023365596,0.18235199,-0.07519553,-0.9803537,5.4711885,6.42772,5.2337008,0,0.40316096,5.49464
53859,0.048454653,0.69631135,9.647861,-0.021991149,-0.005497787,0.024587328,0.18467218,-0.06540682,-0.9806213,5.4711885,6.42772,5.2337008,0,0.3115277,4.26157
53965,0.015553347,0.65024954,9.684351,-0.021685716,-0.009315695,0.028099801,0.18561691,-0.081588596,-0.9792291,5.4711885,6.42772,5.2337008,0,0.37655267,5.2300053
54072,0.10109675,0.7046862,9.6484585,-0.022602012,-0.015118915,0.024587328,0.2229688,-0.006417144,-0.97480446,5.4711885,6.42772,5.2337008,0.010124401,0.36692867,5.069549
54178,0.0747757,0.71425754,9.666405,-0.024129178,-0.00870483,0.024129178,0.16596635,-0.06591076,-0.9839263,5.4711885,6.42772,5.2337008,0,0.36091498,4.9758477
54285,-0.02213361,0.66699934,9.6580305,-0.018020526,-0.008399397,0.02351831,0.19012746,-0.07968943,-0.97851986,5.4711885,6.42772,5.2337008,0,0.28324893,3.9513118
54392,0.061016977,0.6939185,9.652646,-0.01817324,-0.008246681,0.02657264,0.18408923,-0.078630485,-0.97975934,5.4711885,6.42772,5.2337008,0,0.3237241,4.493149
54498,0.02751746,0.7016952,9.667003,-0.017867807,-0.008246681,0.02687807,0.18127593,-0.08872506,-0.97942173,5.4711885,6.42772,5.2337008,0,0.34681278,4.82403
54605,0.02333002,0.68195444,9.703493,-0.019547688,-0.012064589,0.022907447,0.18308756,-0.087061815,-0.979234,5.4711885,6.42772,5.2337008,0,0.3616351,5.0254893
54712,0.058025945,0.6969096,9.688539,-0.021380283,-0.004276057,0.027183503,0.17345461,-0.08841449,-0.9808651,5.4711885,6.42772,5.2337008,0,0.37155738,5.1474543
54818,0.017347964,0.71007013,9.650851,-0.01985312,-0.005955936,0.02443461,0.17789626,-0.09528997,-0.9794247,5.4711885,6.42772,5.2337008,0,0.51171696,7.0820513
54925,0.039481573,0.7076773,9.6783695,-0.01771509,-0.0041233404,0.021838432,0.17269786,-0.088607125,-0.98098123,5.4711885,6.42772,5.2337008,0,0.5145477,7.148913
55032,0.025722843,0.70348984,9.635897,-0.02321288,-0.007330383,0.025809057,0.17055929,-0.08810424,-0.9814006,5.4711885,6.42772,5.2337008,0,0.5164256,7.177305
